// General information: 
//  MT Manager version: 2019.2.0 
//  XDA version: 2019.2.0 build 3853 rev 94535 built on 2019-09-09
// Device information: 
//  DeviceId: 00B40AC7
//  ProductCode: MTW2-3A7G6
//  Firmware Version: 4.3.5
//  Hardware Version: 1.1.0
// Device settings: 
//  Filter Profile: human(46.1)
//  Option Flags: Orientation Smoother Disabled, AHS Disabled, ICC Disabled
// Coordinate system: ENU
PacketCounter	SampleTimeFine	Acc_X	Acc_Y	Acc_Z	FreeAcc_E	FreeAcc_N	FreeAcc_U	Gyr_X	Gyr_Y	Gyr_Z	Mag_X	Mag_Y	Mag_Z	VelInc_X	VelInc_Y	VelInc_Z	Quat_q0	Quat_q1	Quat_q2	Quat_q3	Roll	Pitch	Yaw
33503		9.784819	-0.663461	-1.082217	-0.013132	-0.014723	0.054109	-0.008309	0.006632	-0.010185	-1.005615	0.426270	0.213135	0.097847	-0.006640	-0.010825	-0.431922	0.598513	0.442431	0.509393	-148.445291	-82.723801	45.005887
33504		9.784275	-0.644724	-1.098608	0.000377	-0.035138	0.054096	-0.007600	0.004797	-0.011116	-1.005615	0.421875	0.208740	0.097842	-0.006453	-0.010988	-0.431888	0.598501	0.442435	0.509431	-148.474522	-82.727482	45.031909
33505		9.757553	-0.651858	-1.035085	0.004751	0.025570	0.021207	-0.010512	0.005156	-0.008423	-1.003418	0.424072	0.208740	0.097575	-0.006523	-0.010353	-0.431855	0.598500	0.442424	0.509471	-148.493373	-82.730583	45.046023
33506		9.770412	-0.629120	-1.083079	0.016207	-0.025166	0.037638	-0.009070	0.005312	-0.010556	-0.998779	0.424072	0.208740	0.097704	-0.006297	-0.010833	-0.431817	0.598492	0.442417	0.509517	-148.520485	-82.734633	45.068289
33507		9.791115	-0.635511	-1.056052	0.017253	0.004385	0.055683	-0.013502	0.003034	-0.008610	-1.005615	0.421875	0.206543	0.097911	-0.006360	-0.010562	-0.431770	0.598502	0.442403	0.509558	-148.546782	-82.736751	45.088182
33508		9.771301	-0.644801	-1.065420	0.003707	-0.004380	0.037652	-0.003803	0.006895	-0.007401	-0.998779	0.421875	0.208984	0.097712	-0.006452	-0.010657	-0.431762	0.598485	0.442400	0.509588	-148.554140	-82.740592	45.094140
33509		9.772086	-0.661625	-1.048041	-0.009113	0.016302	0.037666	-0.009019	0.003968	-0.007404	-1.003174	0.421875	0.204346	0.097720	-0.006620	-0.010482	-0.431733	0.598485	0.442392	0.509619	-148.571074	-82.742806	45.107182
33510		9.771479	-0.643186	-1.064762	0.004366	-0.004162	0.037651	-0.005346	0.000433	-0.007879	-1.005615	0.421875	0.208740	0.097715	-0.006436	-0.010648	-0.431704	0.598487	0.442398	0.509636	-148.596311	-82.743707	45.130000
33511		9.776653	-0.601252	-1.057137	0.046927	-0.005992	0.039204	-0.002306	0.001212	-0.004540	-1.003418	0.424072	0.208740	0.097766	-0.006015	-0.010572	-0.431697	0.598487	0.442404	0.509637	-148.604876	-82.743717	45.138483
33512		9.785660	-0.655661	-1.079363	-0.010152	-0.013657	0.054114	-0.008206	-0.000553	-0.002036	-1.007813	0.424072	0.210938	0.097857	-0.006558	-0.010793	-0.431671	0.598510	0.442389	0.509645	-148.612328	-82.742320	45.141699
33513		9.772237	-0.659555	-1.047935	-0.007798	0.016757	0.037666	-0.004483	-0.000936	-0.001205	-1.007813	0.426270	0.210938	0.097722	-0.006596	-0.010479	-0.431661	0.598527	0.442384	0.509637	-148.614361	-82.740283	45.142341
33514		9.778038	-0.635645	-1.023677	0.021570	0.035496	0.039230	0.001393	-0.002995	-0.003441	-1.005615	0.424072	0.210938	0.097780	-0.006358	-0.010235	-0.431657	0.598532	0.442406	0.509616	-148.627510	-82.737957	45.157431
33515		9.805545	-0.644958	-1.070145	0.004742	-0.004404	0.072142	0.004459	-0.002888	0.001473	-1.003174	0.419678	0.206787	0.098056	-0.006449	-0.010700	-0.431677	0.598541	0.442420	0.509577	-148.618708	-82.734167	45.152314
33516		9.784223	-0.619898	-1.114069	0.017502	-0.054276	0.054084	-0.000809	-0.004471	-0.001680	-1.001221	0.430664	0.210938	0.097842	-0.006200	-0.011138	-0.431662	0.598561	0.442427	0.509559	-148.630354	-82.730820	45.163372
33517		9.771458	-0.641564	-1.065933	0.006683	-0.003305	0.037650	-0.005926	-0.001093	0.000929	-1.003418	0.430664	0.206543	0.097715	-0.006415	-0.010659	-0.431653	0.598587	0.442413	0.509549	-148.625394	-82.728070	45.156130
33518		9.770770	-0.623778	-1.082938	0.020312	-0.023752	0.037634	-0.003040	-0.000779	-0.003339	-1.001221	0.424316	0.213135	0.097708	-0.006240	-0.010829	-0.431663	0.598582	0.442436	0.509526	-148.630377	-82.726368	45.164647
33519		9.791371	-0.630965	-1.056406	0.021359	0.005802	0.055674	-0.006712	-0.001740	-0.001019	-0.999023	0.426270	0.210938	0.097914	-0.006311	-0.010563	-0.431645	0.598607	0.442427	0.509520	-148.634847	-82.723883	45.166457
33520		9.771451	-0.641004	-1.066334	0.007878	-0.002906	0.037650	-0.007421	0.000093	-0.000086	-1.001221	0.424072	0.206543	0.097715	-0.006410	-0.010663	-0.431633	0.598630	0.442411	0.509516	-148.631912	-82.721673	45.160771
33521		9.772132	-0.658478	-1.049598	-0.004948	0.017772	0.037666	-0.005243	-0.002255	-0.001578	-0.996582	0.422119	0.213379	0.097721	-0.006586	-0.010495	-0.431617	0.598652	0.442409	0.509507	-148.638880	-82.719102	45.165949
33522		9.750845	-0.633014	-1.093373	0.007882	-0.032074	0.019610	-0.003826	-0.001425	-0.005287	-1.003174	0.419678	0.213379	0.097508	-0.006333	-0.010933	-0.431596	0.598661	0.442417	0.509506	-148.657615	-82.717952	45.183402
33523		9.785541	-0.653615	-1.081680	-0.006238	-0.012254	0.054119	-0.004507	-0.004761	-0.000936	-1.007568	0.419678	0.206787	0.097856	-0.006537	-0.010814	-0.431578	0.598689	0.442420	0.509486	-148.667533	-82.713963	45.191978
33524		9.770735	-0.622271	-1.084125	0.022346	-0.022949	0.037631	-0.002281	0.000540	-0.002964	-1.007813	0.426270	0.208740	0.097707	-0.006224	-0.010841	-0.431558	0.598702	0.442410	0.509496	-148.675089	-82.713592	45.196419
33525		9.785561	-0.652810	-1.081980	-0.005645	-0.012004	0.054120	-0.009805	-0.001175	-0.007506	-1.007813	0.426270	0.206543	0.097855	-0.006532	-0.010819	-0.431516	0.598717	0.442411	0.509513	-148.704830	-82.713315	45.221919
33526		9.786291	-0.669921	-1.065065	-0.018487	0.008626	0.054138	-0.004460	0.002888	-0.001472	-1.001221	0.426270	0.208740	0.097863	-0.006700	-0.010652	-0.431520	0.598718	0.442404	0.509515	-148.697968	-82.713496	45.214838
33527		9.772220	-0.656101	-1.050268	-0.002975	0.018484	0.037666	-0.004536	0.000408	-0.004353	-1.003418	0.424072	0.213135	0.097722	-0.006563	-0.010503	-0.431505	0.598725	0.442406	0.509518	-148.708931	-82.713055	45.224451
33528		9.750959	-0.630439	-1.093849	0.009867	-0.031364	0.019610	-0.005322	-0.000239	-0.006302	-1.001221	0.424072	0.210938	0.097509	-0.006308	-0.010938	-0.431484	0.598730	0.442415	0.509523	-148.729232	-82.712739	45.243449
33529		9.785700	-0.650749	-1.081966	-0.004247	-0.011542	0.054121	-0.002357	-0.001940	-0.005846	-1.005615	0.424072	0.210938	0.097857	-0.006510	-0.010819	-0.431466	0.598734	0.442432	0.509518	-148.750117	-82.711591	45.264323
33530		9.785035	-0.632567	-1.098912	0.009269	-0.031959	0.054103	-0.000839	0.000698	-0.005098	-1.005615	0.424072	0.208740	0.097850	-0.006328	-0.010989	-0.431459	0.598732	0.442444	0.509516	-148.761840	-82.711496	45.276563
33531		9.785747	-0.649682	-1.082182	-0.003558	-0.011282	0.054121	0.000607	-0.003641	-0.005390	-1.003418	0.426270	0.210938	0.097857	-0.006499	-0.010820	-0.431448	0.598735	0.442471	0.509498	-148.783219	-82.709378	45.299648
33532		9.777453	-0.612094	-1.043147	0.040987	0.017184	0.039187	0.005114	0.001121	-0.004453	-1.003174	0.421875	0.213379	0.097774	-0.006123	-0.010432	-0.431466	0.598717	0.442498	0.509481	-148.787150	-82.709353	45.308288
33533		9.791590	-0.625047	-1.057887	0.026176	0.007573	0.055661	0.000581	-0.002969	-0.006964	-1.007813	0.421875	0.208740	0.097916	-0.006254	-0.010577	-0.431452	0.598715	0.442528	0.509468	-148.813001	-82.708029	45.335867
33534		9.777466	-0.611204	-1.043545	0.041622	0.017441	0.039183	0.005144	-0.004048	-0.001037	-1.005615	0.424072	0.208740	0.097775	-0.006112	-0.010434	-0.431455	0.598725	0.442547	0.509438	-148.818390	-82.704630	45.343718
33535		9.771616	-0.634850	-1.068499	0.012933	-0.001051	0.037645	0.005881	-0.006553	-0.000395	-1.003174	0.421875	0.208984	0.097717	-0.006348	-0.010682	-0.431466	0.598736	0.442578	0.509388	-148.824335	-82.699600	45.354290
33536		9.770860	-0.617312	-1.085826	0.026418	-0.021501	0.037625	0.005930	-0.003401	0.000912	-1.001221	0.424072	0.210938	0.097709	-0.006172	-0.010857	-0.431485	0.598742	0.442597	0.509350	-148.818610	-82.695985	45.352592
33537		9.791416	-0.624969	-1.059543	0.027468	0.008057	0.055657	0.005197	-0.005392	0.002113	-1.001221	0.426270	0.208740	0.097915	-0.006248	-0.010593	-0.431503	0.598757	0.442616	0.509300	-148.812664	-82.690780	45.350781
33538		9.771438	-0.635391	-1.069810	0.013959	-0.000704	0.037643	0.008895	-0.005102	0.001368	-1.000977	0.421875	0.206543	0.097715	-0.006353	-0.010696	-0.431535	0.598759	0.442651	0.509241	-148.805985	-82.685856	45.351164
33539		9.776454	-0.594603	-1.062729	0.056523	-0.002512	0.039155	0.006037	-0.006090	0.007211	-1.003418	0.426270	0.213135	0.097765	-0.005942	-0.010624	-0.431566	0.598785	0.442659	0.509177	-148.781732	-82.678796	45.331380
33540		9.791198	-0.626137	-1.060867	0.028529	0.008424	0.055654	0.002965	-0.001701	0.000456	-1.005615	0.424072	0.213135	0.097912	-0.006261	-0.010608	-0.431581	0.598791	0.442669	0.509147	-148.775002	-82.675945	45.327461
33541		9.791153	-0.626464	-1.061093	0.028878	0.008548	0.055653	0.001576	-0.003202	0.005740	-0.998779	0.421875	0.208984	0.097912	-0.006262	-0.010609	-0.431602	0.598816	0.442664	0.509104	-148.752292	-82.670735	45.306656
33542		9.790373	-0.609701	-1.078198	0.042379	-0.011866	0.055631	0.005403	-0.001776	0.011026	-1.001221	0.424072	0.208740	0.097904	-0.006091	-0.010781	-0.431646	0.598844	0.442646	0.509050	-148.705333	-82.664707	45.262604
33543		9.770333	-0.620922	-1.088513	0.028846	-0.020627	0.037620	0.008267	-0.009782	0.008870	-1.000977	0.419922	0.213379	0.097704	-0.006204	-0.010881	-0.431680	0.598879	0.442662	0.508966	-148.682188	-82.655341	45.245225
33544		9.770893	-0.639484	-1.072345	0.015972	0.000063	0.037640	0.008290	-0.005958	0.008602	-1.001221	0.426270	0.206543	0.097710	-0.006390	-0.010721	-0.431714	0.598908	0.442665	0.508901	-148.653121	-82.648027	45.220253
33545		9.770766	-0.640574	-1.072846	0.016321	0.000187	0.037640	0.012800	-0.005693	0.011381	-1.005615	0.426270	0.206543	0.097708	-0.006399	-0.010726	-0.431778	0.598928	0.442677	0.508813	-148.608539	-82.639910	45.183877
33546		9.756518	-0.628373	-1.058801	0.031814	0.009985	0.021154	0.009838	-0.008489	0.012770	-1.005615	0.421875	0.211182	0.097566	-0.006277	-0.010584	-0.431838	0.598957	0.442689	0.508718	-148.565135	-82.630282	45.148405
33547		9.765304	-0.684497	-1.081808	-0.025204	0.002300	0.036138	0.011306	-0.009004	0.012211	-0.996582	0.424072	0.208740	0.097654	-0.006838	-0.010814	-0.431891	0.598990	0.442701	0.508622	-148.526105	-82.620292	45.116762
33548		9.784376	-0.657836	-1.089633	0.002170	-0.009242	0.054124	0.006060	-0.006763	0.008791	-1.001221	0.426514	0.213135	0.097844	-0.006574	-0.010893	-0.431920	0.599025	0.442701	0.508558	-148.499109	-82.612603	45.093015
33549		9.764299	-0.669304	-1.099961	-0.011366	-0.018006	0.036117	0.008446	-0.005493	0.016212	-1.000977	0.421875	0.208984	0.097644	-0.006685	-0.010997	-0.431983	0.599064	0.442687	0.508470	-148.438728	-82.603123	45.038189
33550		9.803990	-0.650495	-1.080988	0.016730	-0.000096	0.072130	0.012064	-0.007687	0.012586	-0.999023	0.426270	0.210938	0.098041	-0.006498	-0.010806	-0.432038	0.599096	0.442693	0.508380	-148.396205	-82.593715	45.002559
33551		9.784618	-0.679338	-1.074431	-0.009990	0.011689	0.054147	0.008260	-0.005289	0.007030	-1.003662	0.430664	0.208740	0.097847	-0.006789	-0.010742	-0.432077	0.599115	0.442706	0.508313	-148.370145	-82.587082	44.982233
33552		9.749815	-0.659211	-1.086790	0.004837	-0.007905	0.019631	0.006084	-0.002939	0.008522	-1.005615	0.428467	0.206543	0.097499	-0.006588	-0.010867	-0.432128	0.599130	0.442710	0.508248	-148.332756	-82.581055	44.950838
33553		9.784431	-0.681011	-1.075072	-0.009257	0.011921	0.054147	0.000132	-0.003358	0.007879	-1.001221	0.428467	0.210938	0.097845	-0.006806	-0.010749	-0.432150	0.599163	0.442696	0.508203	-148.303807	-82.575105	44.922901
33554		9.764402	-0.692023	-1.085154	-0.022785	0.003117	0.036144	0.002387	-0.003226	0.009268	-1.000977	0.421875	0.208984	0.097645	-0.006916	-0.010850	-0.432190	0.599188	0.442688	0.508146	-148.266608	-82.568904	44.889454
33555		9.784250	-0.682580	-1.075727	-0.008549	0.012132	0.054148	0.004510	-0.004234	0.004625	-1.001221	0.428467	0.210938	0.097843	-0.006823	-0.010755	-0.432215	0.599207	0.442696	0.508096	-148.249416	-82.563504	44.875903
33556		9.782799	-0.647776	-1.109900	0.018142	-0.028849	0.054100	0.005951	-0.004078	0.002490	-1.005859	0.430664	0.208740	0.097828	-0.006476	-0.011097	-0.432236	0.599219	0.442711	0.508051	-148.239618	-82.558985	44.870047
33557		9.764176	-0.693428	-1.086288	-0.021770	0.003476	0.036146	0.005191	-0.005397	0.002118	-1.003418	0.424072	0.210938	0.097642	-0.006933	-0.010860	-0.432253	0.599234	0.442731	0.508002	-148.234102	-82.553775	44.868666
33558		9.762714	-0.658685	-1.120516	0.004928	-0.037518	0.036098	0.006764	-0.004103	0.006015	-0.999023	0.428467	0.208740	0.097628	-0.006584	-0.011203	-0.432290	0.599248	0.442741	0.507944	-148.210154	-82.548216	44.849921
33559		9.789837	-0.660552	-1.052812	0.021823	0.031221	0.055656	0.006711	-0.002760	0.002863	-0.999023	0.426514	0.213135	0.097899	-0.006604	-0.010527	-0.432320	0.599254	0.442757	0.507897	-148.194934	-82.544065	44.839631
33560		9.784610	-0.702192	-1.060556	-0.020022	0.033266	0.054173	0.006711	-0.002760	0.002863	-1.001221	0.428467	0.206543	0.097846	-0.007020	-0.010604	-0.432353	0.599259	0.442775	0.507848	-148.179166	-82.539795	44.829354
33561		9.782482	-0.649945	-1.111430	0.019889	-0.028248	0.054098	0.008285	-0.001465	0.006760	-0.998779	0.424072	0.208740	0.097825	-0.006496	-0.011114	-0.432401	0.599268	0.442780	0.507793	-148.145609	-82.535094	44.801480
33562		9.769049	-0.654562	-1.080018	0.022170	0.002115	0.037628	0.006711	-0.002760	0.002864	-1.003418	0.426270	0.213135	0.097691	-0.006544	-0.010799	-0.432433	0.599272	0.442796	0.507747	-148.129607	-82.531199	44.790735
33563		9.797825	-0.699520	-1.092698	-0.020944	0.003309	0.070644	0.000760	-0.003177	0.002221	-0.999023	0.430908	0.213135	0.097979	-0.006994	-0.010925	-0.432443	0.599290	0.442800	0.507713	-148.121209	-82.527036	44.783885
33564		9.782374	-0.650870	-1.111840	0.020942	-0.027889	0.054097	0.001495	0.003309	-0.000832	-0.998779	0.424072	0.210938	0.097824	-0.006509	-0.011120	-0.432462	0.599284	0.442802	0.507702	-148.108988	-82.526735	44.773958
33565		9.783755	-0.686167	-1.077941	-0.005087	0.013324	0.054148	0.001520	-0.001859	0.002593	-1.005615	0.424072	0.206543	0.097838	-0.006860	-0.010779	-0.432478	0.599299	0.442803	0.507670	-148.095748	-82.523101	44.762665
33566		9.769647	-0.672980	-1.063438	0.010320	0.023153	0.037651	0.003775	-0.001728	0.003982	-1.003418	0.428467	0.210938	0.097697	-0.006728	-0.010634	-0.432497	0.599315	0.442799	0.507639	-148.077157	-82.519558	44.745758
33567		9.782314	-0.651642	-1.111909	0.021913	-0.027550	0.054096	0.003015	0.001450	0.001761	-0.994385	0.421875	0.208984	0.097823	-0.006515	-0.011120	-0.432523	0.599316	0.442799	0.507615	-148.058533	-82.517785	44.729898
33568		9.763043	-0.679632	-1.104759	-0.004852	-0.015786	0.036126	0.001520	-0.001859	0.002593	-0.998779	0.424072	0.208740	0.097631	-0.006795	-0.011047	-0.432534	0.599333	0.442796	0.507588	-148.046055	-82.514304	44.718466
33569		9.762334	-0.662290	-1.121701	0.008686	-0.036207	0.036100	-0.000681	0.001164	0.002508	-1.001221	0.426270	0.210938	0.097623	-0.006622	-0.011218	-0.432550	0.599345	0.442785	0.507570	-148.027467	-82.512164	44.700507
33570		9.777778	-0.711143	-1.102438	-0.032520	-0.004744	0.052654	0.002228	0.000802	-0.000187	-0.990234	0.428711	0.210938	0.097778	-0.007111	-0.011025	-0.432561	0.599348	0.442786	0.507556	-148.018954	-82.510888	44.693348
33571		9.768929	-0.656283	-1.080061	0.025178	0.003208	0.037621	0.001495	0.003308	-0.000832	-0.996826	0.426270	0.206543	0.097689	-0.006563	-0.010802	-0.432580	0.599342	0.442786	0.507547	-148.006527	-82.510803	44.682859
33572		9.768958	-0.656174	-1.079862	0.025572	0.003319	0.037619	-0.000026	0.000671	-0.001576	-0.996826	0.426270	0.206543	0.097689	-0.006563	-0.010799	-0.432592	0.599342	0.442795	0.507530	-148.001944	-82.509525	44.680457
33573		9.784409	-0.704845	-1.060645	-0.015592	0.034792	0.054176	-0.001468	0.000516	0.000559	-1.001221	0.428467	0.206543	0.097844	-0.007048	-0.010607	-0.432599	0.599352	0.442789	0.507516	-147.992523	-82.507661	44.671289
33574		9.763085	-0.680010	-1.104155	-0.002765	-0.015130	0.036128	0.003042	0.000779	0.003338	-0.999023	0.430908	0.213135	0.097631	-0.006798	-0.011042	-0.432632	0.599354	0.442790	0.507486	-147.968000	-82.505355	44.650405
33575		9.789590	-0.663758	-1.053094	0.027314	0.033075	0.055636	0.007313	-0.001911	-0.004372	-1.001221	0.428467	0.208740	0.097896	-0.006639	-0.010530	-0.432648	0.599341	0.442827	0.507456	-147.977370	-82.503809	44.665263
33576		9.754867	-0.642739	-1.065374	0.042118	0.013495	0.021112	0.007417	-0.004596	0.001934	-1.003662	0.430664	0.213135	0.097549	-0.006426	-0.010652	-0.432679	0.599345	0.442856	0.507399	-147.968547	-82.498908	44.663014
33577		9.782258	-0.652481	-1.111909	0.025406	-0.026400	0.054091	0.002988	-0.002375	0.002035	-0.998779	0.422119	0.213379	0.097823	-0.006524	-0.011118	-0.432697	0.599356	0.442864	0.507363	-147.957825	-82.495190	44.655109
33578		9.777720	-0.711757	-1.102559	-0.029686	-0.003799	0.052663	0.001600	0.000624	0.005473	-1.005615	0.426270	0.206543	0.097777	-0.007115	-0.011026	-0.432718	0.599376	0.442846	0.507337	-147.930278	-82.491865	44.628075
33579		9.782895	-0.670861	-1.094974	0.012881	-0.005577	0.054118	-0.000681	0.001164	0.002507	-0.996582	0.424072	0.204346	0.097829	-0.006707	-0.010950	-0.432734	0.599388	0.442835	0.507319	-147.911775	-82.489720	44.610201
33580		9.782206	-0.653590	-1.111719	0.026352	-0.026074	0.054089	0.003802	0.002097	0.003710	-1.003418	0.428467	0.210938	0.097822	-0.006534	-0.011118	-0.432767	0.599388	0.442827	0.507298	-147.883874	-82.488289	44.584918
33581		9.777667	-0.712647	-1.102456	-0.028713	-0.003509	0.052666	0.000679	-0.005660	-0.000658	-1.005615	0.424072	0.210938	0.097777	-0.007127	-0.011022	-0.432763	0.599407	0.442844	0.507263	-147.892015	-82.483795	44.594704
33582		9.810976	-0.698400	-1.124410	-0.016461	-0.024771	0.087133	-0.002201	0.003023	-0.000086	-1.001221	0.430664	0.210938	0.098110	-0.006984	-0.011246	-0.432765	0.599415	0.442827	0.507268	-147.881525	-82.483667	44.582638
33583		9.783561	-0.688789	-1.078029	0.000939	0.015370	0.054147	0.001441	0.000154	-0.002135	-1.003418	0.426270	0.206543	0.097836	-0.006889	-0.010780	-0.432773	0.599414	0.442838	0.507252	-147.881242	-82.482446	44.584368
33584		9.749551	-0.685342	-1.073186	0.002487	0.016290	0.019651	0.002961	-0.001704	0.000458	-1.003418	0.426270	0.208740	0.097496	-0.006853	-0.010731	-0.432791	0.599418	0.442851	0.507222	-147.874260	-82.479773	44.580719
33585		9.782841	-0.671275	-1.095205	0.014812	-0.004961	0.054116	0.004455	-0.002892	0.001476	-1.001221	0.430664	0.213135	0.097829	-0.006712	-0.010951	-0.432810	0.599426	0.442865	0.507183	-147.866010	-82.475973	44.576154
33586		9.782128	-0.653843	-1.112255	0.028341	-0.025384	0.054085	0.003722	-0.000386	0.000830	-1.001221	0.428467	0.208740	0.097821	-0.006538	-0.011122	-0.432831	0.599428	0.442874	0.507155	-147.855074	-82.473680	44.568455
33587		9.761477	-0.646611	-1.138969	0.027984	-0.054705	0.036070	0.003748	-0.001057	0.002407	-0.996826	0.426514	0.210938	0.097615	-0.006465	-0.011389	-0.432855	0.599435	0.442880	0.507121	-147.839592	-82.470487	44.556186
33588		9.762833	-0.681962	-1.105179	0.001927	-0.013515	0.036131	-0.005164	0.000232	0.001305	-1.003662	0.432861	0.210693	0.097628	-0.006819	-0.011052	-0.432852	0.599456	0.442863	0.507114	-147.830241	-82.468355	44.544850
33589		9.776893	-0.695720	-1.119726	-0.012843	-0.023130	0.052643	-0.005083	0.002715	0.004185	-1.005859	0.430664	0.210938	0.097769	-0.006955	-0.011198	-0.432862	0.599477	0.442833	0.507107	-147.804617	-82.466447	44.517247
33590		9.797539	-0.703435	-1.092748	-0.011771	0.006421	0.070658	-0.002881	0.004187	0.002421	-1.003418	0.428467	0.210938	0.097975	-0.007033	-0.010929	-0.432885	0.599480	0.442817	0.507097	-147.779723	-82.465801	44.493223
33591		9.782166	-0.654700	-1.111415	0.030092	-0.024793	0.054082	-0.004427	0.006717	-0.001749	-0.994385	0.424316	0.210938	0.097821	-0.006548	-0.011117	-0.432891	0.599476	0.442798	0.507113	-147.766237	-82.467643	44.478243
33592		9.777737	-0.713362	-1.101368	-0.025009	-0.002235	0.052677	-0.004427	0.006717	-0.001749	-1.003418	0.428467	0.208740	0.097777	-0.007135	-0.011017	-0.432892	0.599476	0.442774	0.507134	-147.753833	-82.469593	44.463289
33593		9.763069	-0.681945	-1.103109	0.003654	-0.012911	0.036131	-0.002253	0.004365	-0.003239	-0.999023	0.428467	0.210938	0.097630	-0.006821	-0.011033	-0.432895	0.599470	0.442770	0.507142	-147.749991	-82.470750	44.459294
33594		9.783776	-0.689106	-1.075873	0.004693	0.016641	0.054144	-0.002199	0.007519	-0.001936	-1.001221	0.430664	0.208740	0.097837	-0.006892	-0.010762	-0.432910	0.599457	0.442755	0.507157	-147.733948	-82.473181	44.443151
33595		9.784548	-0.706345	-1.058360	-0.008159	0.037302	0.054175	-0.002279	0.005036	-0.004815	-1.001465	0.432861	0.208496	0.097845	-0.007066	-0.010586	-0.432911	0.599446	0.442754	0.507170	-147.734342	-82.475146	44.443415
33596		9.769201	-0.657220	-1.077022	0.033739	0.006052	0.037594	-0.001492	0.005683	-0.002867	-0.996826	0.430664	0.206543	0.097692	-0.006574	-0.010773	-0.432932	0.599428	0.442757	0.507171	-147.723253	-82.476835	44.434781
33597		9.777479	-0.694060	-1.115626	-0.010043	-0.022215	0.052648	-0.004507	0.004234	-0.004628	-1.001465	0.432861	0.213135	0.097774	-0.006943	-0.011158	-0.432925	0.599424	0.442752	0.507186	-147.726094	-82.478354	44.436224
33598		9.770013	-0.674111	-1.059353	0.021290	0.026823	0.037624	0.000735	0.001990	-0.001204	-1.001221	0.428467	0.206543	0.097700	-0.006742	-0.010595	-0.432948	0.599416	0.442763	0.507166	-147.716296	-82.477555	44.430126
33599		9.782802	-0.652063	-1.107365	0.032934	-0.023866	0.054075	-0.006735	0.007927	-0.006291	-0.996826	0.426270	0.208740	0.097827	-0.006524	-0.011077	-0.432939	0.599404	0.442749	0.507201	-147.717947	-82.481371	44.429082
33600		9.735491	-0.652220	-1.070390	0.036366	0.007322	0.003092	-0.004482	0.003562	-0.003052	-1.001221	0.426514	0.215332	0.097355	-0.006524	-0.010705	-0.432935	0.599403	0.442740	0.507212	-147.715918	-82.482343	44.425735
33601		9.764380	-0.696565	-1.082448	-0.006706	0.008499	0.036165	-0.005950	0.004079	-0.002493	-1.001465	0.433105	0.215332	0.097643	-0.006967	-0.010826	-0.432929	0.599408	0.442725	0.507225	-147.712103	-82.483133	44.419631
33602		9.783024	-0.650947	-1.106052	0.033982	-0.023471	0.054072	-0.006658	0.005914	-0.001561	-1.005615	0.424072	0.208740	0.097830	-0.006511	-0.011063	-0.432924	0.599414	0.442701	0.507242	-147.702334	-82.484176	44.406872
33603		9.777923	-0.692067	-1.112973	-0.007890	-0.021468	0.052652	-0.011062	0.007462	0.000116	-1.003418	0.428467	0.210938	0.097779	-0.006921	-0.011133	-0.432917	0.599427	0.442657	0.507272	-147.684015	-82.485805	44.383184
33604		9.764592	-0.696004	-1.080894	-0.005719	0.008910	0.036165	-0.003696	0.004210	-0.001103	-1.001221	0.428467	0.213135	0.097646	-0.006961	-0.010811	-0.432914	0.599433	0.442637	0.507286	-147.675267	-82.486651	44.371954
33605		9.778042	-0.691647	-1.112189	-0.007272	-0.021243	0.052653	-0.003774	0.001728	-0.003983	-1.001221	0.428467	0.210938	0.097780	-0.006919	-0.011123	-0.432905	0.599435	0.442637	0.507291	-147.681131	-82.486759	44.376870
33606		9.783969	-0.667499	-1.087404	0.022084	-0.002445	0.054103	-0.000051	0.005839	-0.004999	-1.001221	0.430664	0.213135	0.097839	-0.006677	-0.010877	-0.432911	0.599418	0.442639	0.507303	-147.679863	-82.489135	44.376396
33607		9.758251	-0.700963	-1.121237	-0.020495	-0.029895	0.034682	-0.001520	0.001859	-0.002593	-1.003418	0.424072	0.210938	0.097582	-0.007011	-0.011213	-0.432913	0.599419	0.442640	0.507300	-147.679028	-82.488880	44.375858
33608		9.784752	-0.684450	-1.069956	0.009540	0.018353	0.054137	-0.001520	0.001859	-0.002593	-0.999023	0.430664	0.208740	0.097847	-0.006846	-0.010700	-0.432909	0.599423	0.442637	0.507302	-147.679820	-82.488710	44.375897
33609		9.764192	-0.676579	-1.096447	0.009181	-0.010975	0.036130	-0.003800	0.002399	-0.005559	-1.000977	0.422119	0.215576	0.097642	-0.006769	-0.010966	-0.432898	0.599420	0.442640	0.507312	-147.689930	-82.489625	44.385081
33610		9.765610	-0.711279	-1.062417	-0.016915	0.030242	0.036200	-0.001546	0.002530	-0.004169	-1.001221	0.426270	0.206543	0.097656	-0.007115	-0.010625	-0.432889	0.599420	0.442638	0.507320	-147.695162	-82.490216	44.389224
33611		9.778391	-0.689159	-1.110661	-0.005257	-0.020444	0.052656	-0.000078	0.002014	-0.004728	-1.001221	0.424072	0.210938	0.097784	-0.006894	-0.011108	-0.432890	0.599412	0.442649	0.507319	-147.700983	-82.490690	44.396233
33612		9.765027	-0.692846	-1.078988	-0.003086	0.009927	0.036165	-0.002280	0.000540	-0.002966	-1.005859	0.432861	0.210693	0.097650	-0.006930	-0.010790	-0.432879	0.599420	0.442645	0.507323	-147.706404	-82.490323	44.400070
33613		9.779849	-0.723614	-1.076459	-0.031045	0.020844	0.052729	0.005139	0.004938	-0.004726	-1.003662	0.432861	0.208496	0.097798	-0.007238	-0.010767	-0.432902	0.599394	0.442662	0.507320	-147.702441	-82.492213	44.400226
33614		9.777888	-0.670277	-1.126801	0.008959	-0.040666	0.052621	0.001365	0.002169	-0.006862	-0.996826	0.426514	0.210938	0.097779	-0.006706	-0.011269	-0.432914	0.599369	0.442693	0.507312	-147.712859	-82.493404	44.415051
33615		9.778651	-0.687249	-1.109561	-0.003899	-0.020009	0.052657	0.004353	0.004291	-0.006675	-0.996826	0.430908	0.213135	0.097786	-0.006876	-0.011098	-0.432928	0.599341	0.442716	0.507312	-147.718015	-82.495576	44.423950
33616		9.778051	-0.669018	-1.126131	0.009693	-0.040388	0.052621	0.001364	0.002169	-0.006862	-1.003662	0.432861	0.208496	0.097780	-0.006693	-0.011262	-0.432929	0.599326	0.442738	0.507310	-147.730395	-82.496511	44.438639
33617		9.820045	-0.700717	-1.055479	-0.001751	0.039174	0.088665	0.000604	0.005346	-0.009081	-0.999023	0.426514	0.213135	0.098200	-0.007012	-0.010557	-0.432929	0.599299	0.442756	0.507327	-147.744114	-82.499930	44.454008
33618		9.764833	-0.671578	-1.093809	0.012291	-0.009866	0.036128	-0.000104	0.002685	-0.006303	-1.005859	0.430664	0.215332	0.097648	-0.006719	-0.010939	-0.432930	0.599283	0.442773	0.507329	-147.753810	-82.501153	44.465571
33619		9.764909	-0.670881	-1.093562	0.012639	-0.009742	0.036127	-0.002359	0.002553	-0.007693	-0.999023	0.430908	0.215332	0.097649	-0.006713	-0.010937	-0.432918	0.599273	0.442786	0.507341	-147.770619	-82.502794	44.482344
33620		9.730928	-0.667021	-1.088680	0.014200	-0.008735	0.001630	-0.001546	-0.001966	-0.002322	-1.003418	0.428467	0.210938	0.097309	-0.006671	-0.010886	-0.432912	0.599284	0.442797	0.507322	-147.778538	-82.500191	44.490934
33621		9.778392	-0.665760	-1.125104	0.011490	-0.039704	0.052622	-0.000890	0.002037	-0.008251	-1.003418	0.424072	0.210938	0.097784	-0.006662	-0.011252	-0.432902	0.599270	0.442816	0.507331	-147.797762	-82.501750	44.510992
33622		9.853679	-0.683500	-1.076397	0.012022	0.018510	0.123122	0.000733	0.001990	-0.001203	-0.999023	0.426270	0.204346	0.098537	-0.006836	-0.010765	-0.432907	0.599272	0.442812	0.507328	-147.792083	-82.501382	44.505479
33623		9.805606	-0.666367	-1.056665	0.028637	0.029194	0.072090	-0.001547	0.002529	-0.004168	-1.003418	0.424072	0.210938	0.098056	-0.006666	-0.010568	-0.432906	0.599268	0.442817	0.507330	-147.795508	-82.501933	44.509221
33624		9.785033	-0.658547	-1.083283	0.028207	-0.000177	0.054088	-0.003040	-0.000780	-0.003339	-0.990234	0.430908	0.210938	0.097850	-0.006587	-0.010832	-0.432890	0.599278	0.442816	0.507332	-147.805268	-82.501082	44.517354
33625		9.711186	-0.675311	-1.098029	0.001885	-0.017084	-0.016334	-0.003723	0.000383	-0.000831	-1.003418	0.426270	0.208740	0.097112	-0.006754	-0.010980	-0.432887	0.599291	0.442810	0.507325	-147.802627	-82.499575	44.513720
33626		9.759339	-0.691798	-1.117452	-0.013996	-0.027521	0.034700	-0.002333	0.001881	-0.006116	-1.003418	0.426270	0.208740	0.097593	-0.006921	-0.011175	-0.432881	0.599283	0.442822	0.507329	-147.814169	-82.500283	44.525920
33627		9.751105	-0.654143	-1.078247	0.030452	0.001011	0.019588	-0.003749	0.001054	-0.002407	-1.001465	0.435059	0.208496	0.097511	-0.006543	-0.010783	-0.432875	0.599291	0.442818	0.507328	-147.815787	-82.499582	44.526568
33628		9.780046	-0.698451	-1.090370	-0.012572	0.002144	0.052701	0.001440	0.004651	-0.003980	-1.003662	0.430664	0.208740	0.097800	-0.006986	-0.010906	-0.432897	0.599268	0.442832	0.507324	-147.810163	-82.501178	44.524562
33629		9.800020	-0.687915	-1.080306	0.001699	0.011194	0.070660	0.001416	0.000827	-0.003709	-0.999023	0.428711	0.213135	0.098000	-0.006881	-0.010804	-0.432902	0.599262	0.442846	0.507314	-147.814145	-82.500764	44.530579
33630		9.785958	-0.674012	-1.065541	0.017151	0.021063	0.054121	-0.003775	0.001725	-0.003982	-1.003418	0.428467	0.208740	0.097859	-0.006742	-0.010656	-0.432897	0.599263	0.442849	0.507315	-147.819572	-82.500792	44.535785
33631		9.746173	-0.693818	-1.085027	-0.010347	0.003332	0.018204	-0.003093	0.000562	-0.006489	-0.996582	0.424316	0.210938	0.097461	-0.006942	-0.010850	-0.432881	0.599261	0.442861	0.507321	-147.836993	-82.501097	44.552751
33632		9.753837	-0.712618	-1.140960	-0.040910	-0.045495	0.033287	0.003515	0.000492	-0.009925	-0.996826	0.426270	0.204346	0.097538	-0.007131	-0.011410	-0.432873	0.599240	0.442896	0.507322	-147.864207	-82.502576	44.582661
33633		9.787953	-0.714864	-1.145682	-0.041721	-0.046186	0.067787	0.003462	0.001834	-0.013076	-1.003418	0.428467	0.210938	0.097879	-0.007155	-0.011458	-0.432863	0.599206	0.442941	0.507331	-147.899228	-82.505503	44.621167
33634		9.765681	-0.662801	-1.091598	0.017785	-0.007946	0.036121	0.002699	0.005010	-0.015294	-1.000977	0.421875	0.208984	0.097656	-0.006635	-0.010919	-0.432854	0.599159	0.442985	0.507356	-147.934857	-82.510889	44.660143
33635		9.732504	-0.675559	-1.069437	0.006075	0.013519	0.001663	0.004877	0.002660	-0.016783	-1.005615	0.424072	0.208740	0.097324	-0.006764	-0.010696	-0.432841	0.599112	0.443043	0.507372	-147.980932	-82.515337	44.710615
33636		9.764595	-0.624395	-1.124543	0.044799	-0.048780	0.036039	0.002644	0.006351	-0.018443	-0.994629	0.430908	0.213135	0.097645	-0.006253	-0.011249	-0.432812	0.599063	0.443081	0.507422	-148.028676	-82.522645	44.758924
33637		9.777728	-0.610673	-1.041400	0.076732	0.029744	0.038943	-0.003200	0.003244	-0.012788	-1.001221	0.426270	0.208740	0.097777	-0.006113	-0.010415	-0.432786	0.599041	0.443105	0.507449	-148.063362	-82.526156	44.793240
33638		9.791937	-0.623401	-1.055647	0.062038	0.020143	0.055483	-0.005197	0.005391	-0.002119	-0.999023	0.430664	0.199707	0.097919	-0.006235	-0.010559	-0.432789	0.599040	0.443091	0.507459	-148.053925	-82.527252	44.782667
33639		9.784822	-0.611742	-1.113316	0.059813	-0.039460	0.053989	-0.016238	0.007673	0.001416	-1.000977	0.422119	0.213379	0.097848	-0.006118	-0.011136	-0.432770	0.599066	0.443030	0.507498	-148.033206	-82.528609	44.753570
33640		9.800389	-0.660602	-1.093651	0.018622	-0.008077	0.070616	-0.013220	0.004631	0.005025	-0.998779	0.421875	0.211182	0.098004	-0.006604	-0.010938	-0.432764	0.599099	0.442973	0.507514	-148.003569	-82.527714	44.717497
33641		9.800405	-0.661133	-1.093189	0.018972	-0.007953	0.070615	-0.007953	0.006217	0.008179	-0.996826	0.428467	0.208740	0.098004	-0.006608	-0.010935	-0.432784	0.599126	0.442916	0.507515	-147.956423	-82.526304	44.666533
33642		9.767731	-0.693904	-1.054378	-0.005988	0.034039	0.036201	-0.000551	-0.002194	0.010381	-1.005859	0.430664	0.210938	0.097678	-0.006934	-0.010543	-0.432808	0.599167	0.442885	0.507474	-147.917261	-82.520212	44.626935
33643		9.746318	-0.669995	-1.098341	0.006867	-0.015822	0.018165	0.000212	-0.005370	0.012600	-1.001221	0.426270	0.208740	0.097464	-0.006694	-0.010981	-0.432837	0.599215	0.442861	0.507412	-147.876051	-82.511823	44.586676
33644		9.786680	-0.668501	-1.062378	0.021836	0.022676	0.054108	-0.004955	-0.005146	0.013902	-0.996582	0.424316	0.210938	0.097868	-0.006678	-0.010621	-0.432856	0.599276	0.442820	0.507361	-147.832610	-82.503287	44.541427
33645		9.774935	-0.717238	-1.111765	-0.035826	-0.014553	0.051304	0.000996	-0.004724	0.014549	-1.001221	0.428467	0.210938	0.097750	-0.007165	-0.011115	-0.432894	0.599325	0.442790	0.507295	-147.782464	-82.494609	44.492606
33646		9.760007	-0.687243	-1.114430	-0.007204	-0.025201	0.034713	-0.003566	-0.003646	0.008619	-0.999268	0.432861	0.210693	0.097601	-0.006868	-0.011142	-0.432901	0.599372	0.442761	0.507260	-147.755348	-82.488301	44.463487
33647		9.755513	-0.746802	-1.105258	-0.062300	-0.002705	0.033401	0.003066	0.000109	0.004914	-0.999268	0.432861	0.206299	0.097555	-0.007465	-0.011053	-0.432932	0.599383	0.442755	0.507225	-147.728364	-82.484903	44.439224
33648		9.773359	-0.684136	-1.145960	-0.008283	-0.055257	0.051221	-0.001419	0.003668	0.001864	-1.003418	0.426270	0.208740	0.097733	-0.006841	-0.011461	-0.432965	0.599379	0.442751	0.507206	-147.703501	-82.483984	44.417514
33649		9.775478	-0.736939	-1.094786	-0.047597	0.006439	0.051353	-0.004436	0.006712	-0.001744	-1.001465	0.432861	0.208496	0.097754	-0.007370	-0.010951	-0.432971	0.599375	0.442732	0.507222	-147.689953	-82.485820	44.402469
33650		9.755706	-0.746533	-1.103731	-0.061189	-0.002411	0.033408	-0.003807	0.011388	-0.009246	-1.003418	0.426514	0.219727	0.097556	-0.007470	-0.011043	-0.432975	0.599337	0.442730	0.507265	-147.691857	-82.492400	44.404193
33651		9.761707	-0.721695	-1.078241	-0.031839	0.016393	0.034804	-0.001681	0.010382	-0.013886	-1.005615	0.428467	0.206543	0.097616	-0.007224	-0.010787	-0.432966	0.599291	0.442746	0.507313	-147.712822	-82.499731	44.425551
33652		9.781816	-0.710217	-1.067468	-0.017604	0.025483	0.052751	-0.001656	0.009710	-0.012310	-1.003418	0.428467	0.210938	0.097817	-0.007108	-0.010679	-0.432953	0.599255	0.442754	0.507360	-147.731941	-82.506325	44.443694
33653		9.794760	-0.687135	-1.114991	-0.005880	-0.025185	0.069216	0.002725	0.008838	-0.015559	-1.001221	0.430664	0.206543	0.097947	-0.006879	-0.011154	-0.432950	0.599200	0.442789	0.507397	-147.760225	-82.513417	44.474979
33654		9.767410	-0.676023	-1.068034	0.011384	0.014922	0.036153	0.004092	0.006513	-0.020572	-1.001465	0.433105	0.215332	0.097673	-0.006770	-0.010684	-0.432938	0.599133	0.442852	0.507432	-147.810744	-82.521025	44.530422
33655		9.766907	-0.656720	-1.084277	0.024956	-0.005477	0.036107	0.003460	0.006332	-0.014915	-0.999023	0.426270	0.208740	0.097668	-0.006574	-0.010846	-0.432933	0.599084	0.442893	0.507458	-147.842184	-82.526700	44.565314
33656		9.786283	-0.627520	-1.090656	0.052497	-0.016908	0.054005	0.004218	0.007651	-0.014540	-1.008057	0.430664	0.215332	0.097862	-0.006282	-0.010910	-0.432938	0.599029	0.442935	0.507482	-147.868549	-82.532643	44.596191
33657		9.781359	-0.667668	-1.097578	0.010621	-0.014947	0.052662	0.002069	0.004832	-0.009632	-1.003418	0.428467	0.210938	0.097813	-0.006681	-0.010978	-0.432939	0.598999	0.442960	0.507495	-147.884797	-82.535976	44.614957
33658		9.782173	-0.684331	-1.080195	-0.002260	0.005730	0.052707	-0.006821	0.005435	-0.009164	-0.994629	0.428711	0.210938	0.097821	-0.006848	-0.010804	-0.432915	0.598988	0.442960	0.507528	-147.904141	-82.539351	44.631702
33659		9.773914	-0.646289	-1.040538	0.042153	0.034285	0.037534	-0.003809	0.006889	-0.007399	-1.003418	0.426270	0.210938	0.097739	-0.006467	-0.010409	-0.432909	0.598969	0.442959	0.507556	-147.910730	-82.543001	44.637329
33660		9.761125	-0.657597	-1.122760	0.010964	-0.043988	0.034674	-0.002387	0.003222	-0.009263	-1.001221	0.424072	0.208740	0.097611	-0.006581	-0.011229	-0.432893	0.598954	0.442975	0.507573	-147.932205	-82.545314	44.658717
33661		9.776082	-0.687747	-1.120017	-0.016977	-0.033088	0.051279	-0.002367	0.007045	-0.009531	-0.999268	0.432861	0.206299	0.097760	-0.006882	-0.011204	-0.432886	0.598928	0.442983	0.507603	-147.945535	-82.549689	44.671977
33662		9.769225	-0.684564	-1.046613	0.000991	0.036476	0.036194	0.001942	0.003693	-0.015659	-1.003418	0.428711	0.215332	0.097692	-0.006853	-0.010468	-0.432876	0.598883	0.443032	0.507622	-147.985512	-82.554389	44.715692
33663		9.773031	-0.606799	-1.072134	0.070019	-0.006272	0.037433	-0.002348	0.010869	-0.009798	-1.001221	0.426514	0.213135	0.097729	-0.006073	-0.010727	-0.432876	0.598846	0.443033	0.507664	-147.990984	-82.560701	44.721037
33664		9.768154	-0.647206	-1.078752	0.028144	-0.004256	0.036099	-0.008246	0.009099	-0.007299	-1.001221	0.426270	0.210938	0.097681	-0.006476	-0.010792	-0.432857	0.598837	0.443013	0.507709	-147.996532	-82.565134	44.722267
33665		9.782445	-0.659941	-1.092558	0.013432	-0.013877	0.052660	-0.004523	0.008720	-0.006465	-0.996826	0.428711	0.215332	0.097824	-0.006603	-0.010930	-0.432855	0.598818	0.443003	0.507742	-147.995851	-82.569389	44.720150
33666		9.768440	-0.645727	-1.077047	0.028866	-0.003952	0.036097	-0.006020	0.009905	-0.007481	-1.003418	0.426270	0.210938	0.097684	-0.006461	-0.010775	-0.432847	0.598800	0.442990	0.507783	-147.997976	-82.574192	44.719692
33667		9.777700	-0.699880	-1.098434	-0.028070	-0.011745	0.051333	0.000696	0.007157	-0.004615	-1.001221	0.428467	0.213135	0.097776	-0.007001	-0.010988	-0.432862	0.598777	0.442991	0.507795	-147.991046	-82.577126	44.714289
33668		9.803414	-0.665456	-1.063454	0.015213	0.016048	0.070642	-0.001558	0.007022	-0.006006	-1.007813	0.426270	0.208740	0.098034	-0.006658	-0.010638	-0.432863	0.598759	0.442989	0.507816	-147.992031	-82.580296	44.715153
33669		9.777217	-0.681189	-1.114106	-0.014146	-0.031985	0.051287	-0.004516	0.004225	-0.004623	-0.999023	0.430908	0.213135	0.097772	-0.006814	-0.011143	-0.432856	0.598756	0.442984	0.507831	-147.994952	-82.581808	44.716672
33670		9.749683	-0.671210	-1.067570	0.003092	0.008163	0.018206	0.003564	0.003649	-0.008610	-1.003418	0.424072	0.202148	0.097496	-0.006716	-0.010678	-0.432863	0.598726	0.443014	0.507834	-148.009653	-82.584164	44.735126
33671		9.778111	-0.697408	-1.096345	-0.026671	-0.011205	0.051337	0.001381	0.005995	-0.007120	-1.001221	0.428467	0.213135	0.097781	-0.006977	-0.010966	-0.432871	0.598700	0.443027	0.507847	-148.014397	-82.587294	44.741890
33672		9.764063	-0.683195	-1.081161	-0.011298	-0.001365	0.034772	-0.004570	0.005566	-0.007771	-1.003662	0.432861	0.206299	0.097640	-0.006836	-0.010814	-0.432859	0.598685	0.443027	0.507875	-148.026026	-82.590656	44.752050
33673		9.763455	-0.664850	-1.097685	0.002280	-0.021759	0.034724	0.001363	0.002171	-0.006853	-0.999023	0.428467	0.210938	0.097634	-0.006652	-0.010978	-0.432859	0.598669	0.443047	0.507876	-148.038712	-82.591846	44.766814
33674		9.764939	-0.699285	-1.063643	-0.023776	0.019384	0.034822	-0.002387	0.003220	-0.009260	-1.001221	0.426270	0.210938	0.097649	-0.006998	-0.010638	-0.432856	0.598646	0.443073	0.507884	-148.057779	-82.594099	44.788053
33675		9.730282	-0.677536	-1.075561	-0.009088	-0.000212	0.000274	-0.001648	0.000716	-0.008618	-1.005615	0.424072	0.213135	0.097302	-0.006780	-0.010756	-0.432839	0.598636	0.443094	0.507891	-148.082200	-82.595115	44.812910
33676		9.797742	-0.665268	-1.101970	0.002234	-0.022164	0.069224	-0.001015	0.000897	-0.014271	-1.003418	0.428467	0.208740	0.097977	-0.006660	-0.011020	-0.432802	0.598617	0.443127	0.507915	-148.129473	-82.597957	44.859620
33677		9.785073	-0.685764	-1.053518	-0.008831	0.028741	0.052754	0.002735	-0.000152	-0.011863	-1.005615	0.428467	0.206543	0.097850	-0.006863	-0.010535	-0.432788	0.598593	0.443171	0.507917	-148.165587	-82.599527	44.898800
33678		9.750411	-0.663592	-1.065680	0.005852	0.009108	0.018204	0.001167	-0.001449	-0.015759	-1.001221	0.426270	0.206543	0.097504	-0.006644	-0.010656	-0.432763	0.598562	0.443230	0.507924	-148.219164	-82.601796	44.955784
33679		9.744838	-0.685749	-1.090044	-0.022794	-0.009467	0.016845	0.003410	0.003181	-0.016208	-1.005615	0.428467	0.215332	0.097448	-0.006865	-0.010902	-0.432748	0.598518	0.443282	0.507943	-148.263503	-82.606292	45.003648
33680		9.803830	-0.636030	-1.077255	0.032624	-0.002987	0.070582	-0.000990	0.000224	-0.012695	-1.003174	0.421875	0.213379	0.098038	-0.006367	-0.010773	-0.432722	0.598499	0.443319	0.507956	-148.304566	-82.608211	45.045756
33681		9.770570	-0.649170	-1.055716	0.020840	0.018448	0.036131	0.002691	-0.003305	-0.013168	-0.999023	0.426270	0.208740	0.097705	-0.006498	-0.010556	-0.432698	0.598480	0.443373	0.507951	-148.353010	-82.608621	45.097342
33682		9.769902	-0.630300	-1.072913	0.034390	-0.001916	0.036080	0.002690	-0.003305	-0.013167	-0.999023	0.426270	0.210938	0.097699	-0.006309	-0.010728	-0.432667	0.598466	0.443422	0.507952	-148.403368	-82.609044	45.149455
33683		9.709663	-0.642011	-1.119592	0.006132	-0.049166	-0.017752	0.000408	-0.002771	-0.016131	-0.998779	0.424072	0.208740	0.097096	-0.006428	-0.011195	-0.432630	0.598444	0.443478	0.507960	-148.463055	-82.610591	45.211060
33684		9.777159	-0.638755	-1.015262	0.037613	0.058077	0.037531	-0.014434	-0.002613	-0.016317	-1.001221	0.424072	0.210938	0.097771	-0.006396	-0.010151	-0.432546	0.598455	0.443496	0.508003	-148.531865	-82.612188	45.273035
33685		9.836864	-0.761375	-1.006781	-0.075158	0.101276	0.104031	-0.007001	-0.007186	-0.014383	-1.003418	0.424072	0.208740	0.098368	-0.007621	-0.010064	-0.432482	0.598464	0.443538	0.508010	-148.599423	-82.611035	45.338296
33686		9.741879	-0.751613	-1.065973	-0.089124	0.034302	0.015654	0.004592	-0.007257	-0.028279	-1.008057	0.428467	0.215332	0.097418	-0.007530	-0.010656	-0.432411	0.598420	0.443647	0.508027	-148.714185	-82.614116	45.456917
33687		9.618625	-0.713979	-1.095481	-0.072973	-0.013185	-0.105871	0.023688	-0.001100	-0.039467	-0.998779	0.421875	0.206787	0.096185	-0.007157	-0.010955	-0.432388	0.598291	0.443829	0.508039	-148.845114	-82.623364	45.603807
33688		9.682634	-0.620620	-1.074962	0.024669	-0.008510	-0.050852	0.028120	0.005009	-0.041667	-1.007813	0.428467	0.204346	0.096825	-0.006225	-0.010753	-0.432384	0.598134	0.444014	0.508066	-148.969166	-82.636212	45.745929
33689		9.828310	-0.538387	-0.963677	0.138418	0.093520	0.076008	0.011714	0.015995	-0.048118	-1.005371	0.419678	0.204590	0.098281	-0.005407	-0.009645	-0.432341	0.597969	0.444154	0.508174	-149.101711	-82.656324	45.887523
33690		9.753950	-0.680045	-0.900170	0.003483	0.180824	0.004623	-0.003328	0.012510	-0.057200	-1.003418	0.424072	0.206543	0.097537	-0.006828	-0.009008	-0.432225	0.597820	0.444292	0.508328	-149.285673	-82.677935	46.072638
33691		9.737609	-0.735787	-1.103352	-0.103218	-0.004373	0.014271	0.001743	0.014305	-0.063203	-1.001221	0.424072	0.206543	0.097373	-0.007389	-0.011041	-0.432110	0.597647	0.444455	0.508486	-149.487561	-82.701504	46.278368
33692		9.731789	-0.872570	-1.180095	-0.260344	-0.047830	0.025588	0.024452	0.022113	-0.078250	-1.000977	0.419678	0.211182	0.097313	-0.008762	-0.011813	-0.432047	0.597368	0.444708	0.508647	-149.717063	-82.733349	46.525922
33693		9.823881	-0.921248	-1.240684	-0.321236	-0.087489	0.126416	0.067077	0.023273	-0.096986	-1.003418	0.426270	0.206543	0.098233	-0.009256	-0.012421	-0.432061	0.596956	0.445119	0.508759	-149.996131	-82.770867	46.847161
33694		9.859832	-0.649123	-1.281730	-0.071800	-0.188198	0.149235	0.086409	0.038709	-0.095041	-1.007813	0.421875	0.204346	0.098593	-0.006533	-0.012839	-0.432175	0.596465	0.445543	0.508867	-150.224189	-82.815196	47.128659
33695		9.861012	-0.640576	-1.276949	-0.071445	-0.188072	0.149240	0.085531	0.047012	-0.100622	-1.005371	0.421875	0.202148	0.098604	-0.006450	-0.012795	-0.432287	0.595944	0.445960	0.509017	-150.459998	-82.865219	47.416895
33696		9.852587	-0.834462	-1.340219	-0.284031	-0.209251	0.159350	0.082550	0.051830	-0.099737	-1.007568	0.419678	0.204590	0.098518	-0.008388	-0.013431	-0.432411	0.595412	0.446361	0.509182	-150.685015	-82.917559	47.693812
33697		9.851947	-0.542385	-1.147033	0.033055	-0.091751	0.120148	0.115859	0.044252	-0.099434	-1.003174	0.419678	0.200195	0.098514	-0.005466	-0.011495	-0.432610	0.594835	0.446858	0.509253	-150.912238	-82.965582	47.990842
33698		9.868576	-0.205612	-0.978639	0.390570	-0.006341	0.098731	0.092564	0.050201	-0.076695	-1.005371	0.417480	0.200195	0.098682	-0.002089	-0.009812	-0.432817	0.594338	0.447218	0.509341	-151.048459	-83.010336	48.183693
33699		9.859813	-0.292090	-0.857502	0.326503	0.126610	0.082458	0.083568	0.039295	-0.043881	-1.007568	0.419678	0.202393	0.098596	-0.002939	-0.008596	-0.433050	0.593967	0.447477	0.509348	-151.083112	-83.040303	48.268024
33700		9.855966	-0.082430	-0.885866	0.521534	0.049020	0.069480	0.059771	0.024686	-0.011048	-1.009766	0.417480	0.204590	0.098559	-0.000827	-0.008871	-0.433268	0.593753	0.447613	0.509292	-151.028722	-83.054006	48.249716
33701		9.794139	-0.071665	-0.833191	0.539778	0.089955	0.001845	0.028807	0.016301	0.033388	-1.005371	0.415283	0.204590	0.097941	-0.000699	-0.008340	-0.433484	0.593732	0.447553	0.509187	-150.829483	-83.050972	48.066813
33702		9.788763	-0.221158	-0.909851	0.382623	0.046534	0.013199	0.021422	0.002278	0.071912	-1.005371	0.419678	0.199951	0.097888	-0.002175	-0.009100	-0.433736	0.593853	0.447385	0.508978	-150.511749	-83.030060	47.758903
33703		9.795910	-0.232127	-0.982861	0.365437	-0.022812	0.028333	0.004922	-0.006546	0.099878	-1.007568	0.419678	0.204590	0.097961	-0.002272	-0.009825	-0.433999	0.594090	0.447116	0.508713	-150.110352	-82.996547	47.358526
33704		9.691430	-0.319586	-1.057063	0.267006	-0.086212	-0.062580	-0.013795	-0.009206	0.129057	-1.005371	0.419678	0.204590	0.096917	-0.003134	-0.010566	-0.434275	0.594439	0.446719	0.508420	-149.613126	-82.953007	46.850789
33705		9.740792	-0.384242	-1.043258	0.224762	-0.055594	-0.011390	-0.029770	-0.012733	0.148007	-1.000977	0.419678	0.206787	0.097411	-0.003772	-0.010426	-0.434542	0.594874	0.446232	0.508109	-149.064511	-82.901560	46.281963
33706		9.754365	-0.412394	-1.058983	0.210047	-0.065170	0.005192	-0.051038	-0.009573	0.161685	-1.007813	0.421875	0.204346	0.097547	-0.004048	-0.010584	-0.434779	0.595384	0.445636	0.507832	-148.477948	-82.846827	45.660787
33707		9.743255	-0.493257	-1.091565	0.139178	-0.081956	0.002593	-0.068685	-0.004785	0.171514	-0.999023	0.428467	0.206543	0.097437	-0.004853	-0.010912	-0.435008	0.595935	0.444963	0.507580	-147.858823	-82.790725	44.998284
33708		9.714171	-0.637074	-1.082709	0.014615	-0.046153	-0.017746	-0.092480	0.000405	0.169950	-1.003418	0.428467	0.208740	0.097147	-0.006293	-0.010824	-0.435170	0.596522	0.444221	0.507401	-147.257647	-82.736636	44.339619
33709		9.664997	-0.755743	-1.362648	-0.150697	-0.298286	-0.028598	-0.017773	0.003525	0.165275	-0.999268	0.432861	0.206299	0.096656	-0.007479	-0.013628	-0.435553	0.596927	0.443676	0.507074	-146.631837	-82.684718	43.699626
33710		9.638866	-0.978676	-1.397753	-0.361448	-0.289146	-0.034907	0.193055	0.014431	0.145591	-1.005859	0.432861	0.201904	0.096395	-0.009703	-0.013994	-0.436540	0.596800	0.443703	0.506349	-145.940242	-82.642940	43.115591
33711		9.655685	-0.992920	-1.006978	-0.273860	0.087074	-0.058224	0.260903	0.030420	0.131291	-1.001465	0.432861	0.206299	0.096562	-0.009853	-0.010097	-0.437727	0.596451	0.443906	0.505557	-145.228510	-82.612827	42.549841
33712		9.720610	-0.945090	-1.078140	-0.222677	0.003614	0.010561	0.297660	0.045241	0.121856	-0.999268	0.437256	0.204102	0.097209	-0.009376	-0.010817	-0.439030	0.595963	0.444197	0.504747	-144.498052	-82.591855	41.986247
33713		9.743828	-1.045396	-1.088819	-0.307855	0.006538	0.042551	0.286154	0.060537	0.103176	-0.999268	0.439453	0.204102	0.097440	-0.010388	-0.010933	-0.440286	0.595418	0.444480	0.504047	-143.803585	-82.583356	41.452446
33714		9.850142	-1.033880	-0.955663	-0.248404	0.131816	0.133589	0.254573	0.059199	0.082123	-1.003662	0.439209	0.195068	0.098503	-0.010286	-0.009599	-0.441391	0.594900	0.444750	0.503454	-143.207252	-82.580104	40.999803
33715		9.890543	-1.015447	-1.058729	-0.240135	0.020664	0.183151	0.214992	0.068141	0.059573	-0.997070	0.439453	0.195068	0.098905	-0.010114	-0.010632	-0.442341	0.594393	0.444965	0.503029	-142.688302	-82.588691	40.601878
33716		9.878646	-0.887391	-0.983848	-0.096304	0.055415	0.153792	0.170977	0.073012	0.034405	-0.992676	0.437256	0.201904	0.098784	-0.008848	-0.009882	-0.443109	0.593913	0.445134	0.502770	-142.267824	-82.607905	40.278355
33717		9.832360	-0.884862	-1.070089	-0.113120	-0.042636	0.116500	0.143491	0.082674	0.022284	-0.999512	0.443604	0.192871	0.098320	-0.008830	-0.010748	-0.443783	0.593444	0.445247	0.502629	-141.877477	-82.635408	39.968833
33718		9.816102	-0.811691	-0.984270	-0.024731	0.014512	0.085932	0.135934	0.087346	0.011101	-1.003906	0.441406	0.190674	0.098157	-0.008105	-0.009891	-0.444414	0.592959	0.445362	0.502542	-141.516507	-82.668241	39.684187
33719		9.852908	-0.696252	-0.927687	0.103018	0.038762	0.107647	0.109282	0.091904	0.005917	-0.999268	0.439209	0.188477	0.098525	-0.006955	-0.009326	-0.444966	0.592506	0.445416	0.502540	-141.171618	-82.705223	39.400779
33720		9.816957	-0.780956	-0.999278	0.002422	-0.026248	0.085818	0.096700	0.092935	0.005441	-1.003906	0.441406	0.184082	0.098165	-0.007802	-0.010042	-0.445480	0.592077	0.445436	0.502573	-140.830132	-82.742800	39.113205
33721		9.811490	-0.772350	-1.047751	0.000284	-0.085850	0.084396	0.090048	0.098830	0.003780	-0.997070	0.437012	0.188477	0.098110	-0.007717	-0.010529	-0.445985	0.591643	0.445432	0.502639	-140.477426	-82.783190	38.810855
33722		9.876838	-0.684167	-1.018893	0.097950	-0.081104	0.139296	0.084167	0.100280	0.007544	-0.999512	0.443604	0.181885	0.098764	-0.006834	-0.010241	-0.446480	0.591230	0.445395	0.502719	-140.108076	-82.822883	38.487404
33723		9.886501	-0.724181	-1.046048	0.054300	-0.109441	0.154590	0.074616	0.105938	0.010103	-0.994873	0.441406	0.188477	0.098860	-0.007233	-0.010516	-0.446970	0.590827	0.445317	0.502826	-139.713708	-82.863558	38.134209
33724		9.842397	-0.770963	-1.078167	-0.002231	-0.145956	0.117483	0.065039	0.112894	0.009486	-0.994873	0.441406	0.184082	0.098418	-0.007701	-0.010840	-0.447448	0.590426	0.445204	0.502973	-139.301662	-82.906967	37.758156
33725		9.897770	-0.782693	-1.043200	-0.002216	-0.117119	0.169947	0.042168	0.120238	0.006333	-1.003662	0.439209	0.181885	0.098972	-0.007822	-0.010493	-0.447865	0.590050	0.445023	0.503202	-138.886762	-82.954618	37.365605
33726		9.840825	-0.882751	-0.990202	-0.096803	-0.061860	0.116481	0.026661	0.133200	-0.001687	-1.006104	0.441406	0.184082	0.098402	-0.008827	-0.009969	-0.448237	0.589663	0.444794	0.503527	-138.465063	-83.010570	36.956111
33727		9.874302	-0.972656	-1.066105	-0.199456	-0.128424	0.163694	0.005859	0.140174	-0.020245	-0.997314	0.443604	0.184082	0.098735	-0.009736	-0.010731	-0.448524	0.589259	0.444555	0.503955	-138.089919	-83.076188	36.582748
33728		9.856393	-0.979912	-1.061643	-0.213077	-0.137182	0.145804	-0.018621	0.151990	-0.041602	-1.003662	0.441162	0.173096	0.098554	-0.009821	-0.010690	-0.448704	0.588839	0.444288	0.504521	-137.762344	-83.154461	36.242157
33729		9.867815	-1.029893	-1.066549	-0.269973	-0.145021	0.161180	-0.031312	0.165879	-0.064612	-0.994873	0.443604	0.177490	0.098666	-0.010332	-0.010746	-0.448825	0.588354	0.444028	0.505207	-137.467701	-83.247566	35.928540
33730		9.816650	-1.028415	-1.055832	-0.282521	-0.153103	0.108791	-0.035962	0.181011	-0.096183	-1.001465	0.437012	0.179688	0.098152	-0.010333	-0.010645	-0.448891	0.587769	0.443819	0.506013	-137.229530	-83.359002	35.669968
33731		9.790057	-1.110205	-1.060422	-0.380607	-0.158396	0.088438	-0.049474	0.201884	-0.130885	-1.006104	0.441162	0.173096	0.097883	-0.011169	-0.010700	-0.448871	0.587086	0.443626	0.506992	-137.047581	-83.492746	35.459461
33732		9.803189	-1.115606	-1.095321	-0.411008	-0.207181	0.103708	-0.063100	0.224738	-0.179451	-1.003418	0.432373	0.166504	0.098009	-0.011247	-0.011060	-0.448731	0.586271	0.443486	0.508179	-136.970134	-83.654822	35.345310
33733		9.832274	-1.164379	-1.106777	-0.482910	-0.224777	0.135706	-0.076013	0.254541	-0.223381	-1.003662	0.438965	0.170898	0.098295	-0.011758	-0.011188	-0.448513	0.585306	0.443378	0.509577	-136.954367	-83.846710	35.286816
33734		9.843183	-1.218333	-1.125014	-0.568768	-0.251346	0.149814	-0.094989	0.296652	-0.281149	-1.007813	0.430176	0.166504	0.098398	-0.012327	-0.011390	-0.448185	0.584146	0.443294	0.511267	-137.021432	-84.078745	35.300842
33735		9.822005	-1.296672	-1.101522	-0.680109	-0.236147	0.129546	-0.096458	0.329332	-0.355399	-1.007568	0.421387	0.162354	0.098178	-0.013147	-0.011171	-0.447732	0.582739	0.443348	0.513220	-137.278640	-84.353512	35.504994
33736		9.900610	-1.366376	-1.143932	-0.797098	-0.282945	0.211381	-0.107755	0.367024	-0.443656	-1.011963	0.421387	0.160156	0.098954	-0.013890	-0.011614	-0.447088	0.581066	0.443534	0.515511	-137.813526	-84.678421	35.979437
33737		9.982476	-1.442268	-1.164770	-0.927262	-0.309290	0.293289	-0.177058	0.419264	-0.552124	-1.014160	0.414551	0.156006	0.099760	-0.014709	-0.011844	-0.446087	0.579161	0.443743	0.518335	-138.759326	-85.066202	36.828355
33738		10.169403	-1.725713	-1.024268	-1.235332	-0.131088	0.478090	-0.266940	0.478017	-0.693361	-1.018311	0.410156	0.151611	0.101609	-0.017623	-0.010462	-0.444574	0.576985	0.443986	0.521841	-140.427858	-85.530352	38.348938
33739		10.316429	-2.026662	-0.984711	-1.602744	-0.049363	0.624437	-0.301678	0.504429	-0.861879	-1.027100	0.401367	0.149658	0.103050	-0.020726	-0.010076	-0.442578	0.574426	0.444559	0.525858	-143.457904	-86.060486	41.214986
33740		10.293845	-2.129864	-1.143986	-1.848175	-0.208044	0.596345	-0.349499	0.519362	-1.045903	-1.024170	0.385986	0.143311	0.102795	-0.021857	-0.011669	-0.439978	0.571507	0.445489	0.530413	-148.853589	-86.639944	46.421997
33741		10.359504	-2.597824	-0.932411	-2.387270	0.082762	0.638615	-0.368599	0.531089	-1.255715	-1.032715	0.372559	0.143555	0.103404	-0.026645	-0.009550	-0.436775	0.568106	0.446922	0.535484	-158.591294	-87.231502	55.963131
33742		10.279057	-2.858557	-0.912592	-2.790469	0.142256	0.524329	-0.309509	0.517456	-1.473911	-1.034424	0.354980	0.135254	0.102552	-0.029356	-0.009346	-0.433090	0.564100	0.449131	0.540838	-175.982679	-87.710224	73.192829
33743		10.278805	-2.950006	-1.266892	-3.127768	-0.192133	0.489672	-0.243761	0.512442	-1.653736	-1.043213	0.348389	0.133057	0.102507	-0.030364	-0.012895	-0.429074	0.559515	0.452011	0.546374	158.355189	-87.857862	98.734918
33744		11.101419	-2.326120	-1.123657	-2.682890	-0.168606	1.263638	-0.136144	0.482597	-1.764341	-1.051270	0.326172	0.126953	0.110776	-0.024247	-0.011488	-0.424955	0.554488	0.455523	0.551774	133.591327	-87.513234	123.441491
33745		12.684572	-1.187398	-0.816013	-1.763843	-0.073420	2.830599	-0.130655	0.489031	-1.838211	-1.059570	0.304199	0.118652	0.126709	-0.013044	-0.008462	-0.420625	0.549213	0.459201	0.557291	116.662953	-86.806064	140.316292
33746		13.635604	-1.295053	-1.468082	-2.308400	-0.661111	3.751618	-0.151644	0.545913	-1.860307	-1.061279	0.284180	0.114746	0.136187	-0.014229	-0.015042	-0.416273	0.543720	0.462721	0.563005	105.909990	-85.924044	151.005301
33747		15.066591	-0.076513	-1.802276	-1.569851	-1.234768	5.229237	-0.272098	0.659831	-1.865010	-1.071777	0.266602	0.110840	0.150589	-0.002195	-0.018517	-0.411798	0.538096	0.465631	0.569265	98.321180	-84.957964	158.462642
33748		16.300886	-2.408228	-2.330010	-4.362352	-1.212124	6.201017	-0.566779	0.738922	-1.824115	-1.071045	0.244629	0.104736	0.162692	-0.025634	-0.023830	-0.406793	0.532893	0.467383	0.576279	92.638238	-83.958860	163.847512
33749		15.719210	-2.089561	-2.738695	-4.407801	-1.734058	5.566374	-0.484460	0.741008	-1.867943	-1.074951	0.224854	0.098633	0.156885	-0.022429	-0.027916	-0.401839	0.527359	0.469435	0.583137	88.588373	-82.894300	167.645754
33750		15.503263	-2.615029	-3.479268	-5.381965	-2.363135	5.178477	-0.454132	0.728894	-1.963101	-1.081055	0.207031	0.092285	0.154637	-0.027749	-0.035295	-0.396617	0.521523	0.471798	0.590013	85.665909	-81.752151	170.333338
33751		15.236417	-3.466929	-3.927519	-6.590948	-2.620318	4.653699	-0.439111	0.734282	-2.022760	-1.082520	0.187256	0.086182	0.151857	-0.036294	-0.039755	-0.391222	0.515434	0.474296	0.596923	83.437729	-80.560099	172.334771
33752		14.890067	-2.658276	-4.398382	-6.198096	-3.296410	4.288126	-0.382782	0.706648	-2.121757	-1.084229	0.165039	0.075684	0.148450	-0.028244	-0.044456	-0.385585	0.509024	0.477217	0.603724	81.845949	-79.306970	173.732538
33753		14.030954	-2.642303	-4.657983	-6.406625	-3.573845	3.291473	-0.511145	0.661172	-2.153833	-1.090088	0.145264	0.073975	0.139858	-0.028051	-0.046972	-0.379343	0.502850	0.479852	0.610723	80.628794	-78.031419	174.676326
33754		12.972751	-1.797372	-4.389494	-5.626800	-3.533057	2.296730	-0.747551	0.538169	-2.213450	-1.093750	0.118896	0.070068	0.129398	-0.019572	-0.044172	-0.372024	0.497295	0.482090	0.617969	79.813953	-76.735992	175.078698
33755		11.865612	-0.908130	-4.639697	-4.897007	-3.988418	1.289023	-0.990527	0.342993	-2.210012	-1.095703	0.107910	0.070557	0.118465	-0.010621	-0.046550	-0.363540	0.492723	0.483853	0.625258	79.393518	-75.456957	174.928356
33756		10.908184	0.586981	-3.504776	-3.238720	-3.264175	0.697588	-1.359602	0.130951	-2.103918	-1.097168	0.081543	0.075439	0.109111	0.004483	-0.035153	-0.353985	0.489690	0.484526	0.632560	79.183958	-74.269381	174.347971
33757		9.801005	-0.193973	-3.590509	-3.927445	-3.095059	-0.648632	-1.711430	0.035417	-1.863632	-1.098633	0.055176	0.065186	0.097978	-0.003160	-0.035899	-0.343967	0.488063	0.483578	0.640026	78.837391	-73.219196	173.688780
33758		7.254092	-3.886416	-3.411071	-6.680332	-1.813653	-4.205366	-1.826822	-0.164191	-1.510313	-1.098389	0.048584	0.067627	0.072271	-0.039720	-0.033691	-0.334348	0.488089	0.481682	0.646500	78.649994	-72.401496	172.799627
33759		5.250239	-7.464700	-1.990122	-8.934325	0.721272	-7.185499	-1.580684	-0.426065	-1.143904	-1.093750	0.044434	0.083008	0.052115	-0.075099	-0.019198	-0.325759	0.489340	0.480056	0.651132	78.885191	-71.808062	171.602006
33760		5.171175	-8.065910	-2.061410	-9.478672	0.980458	-7.523232	-0.694743	-0.816251	-0.798861	-1.095703	0.035645	0.090088	0.051472	-0.080935	-0.020123	-0.319507	0.491213	0.481073	0.652069	80.127874	-71.445586	169.875181
33761		4.075041	-10.240931	-2.292246	-11.143929	1.507541	-9.286455	-0.076453	-1.125473	-0.269352	-1.102295	0.031494	0.103271	0.040740	-0.102473	-0.022654	-0.315738	0.494360	0.483278	0.649893	82.054569	-71.394832	167.797595
33762		3.574832	-10.130865	-1.520936	-10.625215	2.193532	-9.670742	0.384554	-1.374709	0.205264	-1.102783	0.042725	0.120850	0.035957	-0.101243	-0.015157	-0.314040	0.498716	0.486183	0.645203	84.577944	-71.605857	165.371133
33763		3.766792	-8.082033	-0.962559	-8.665521	2.063385	-8.770919	0.605622	-1.497362	0.614010	-1.100830	0.053955	0.140381	0.037988	-0.080675	-0.009586	-0.313889	0.504080	0.488941	0.638994	87.460417	-72.018244	162.703625
33764		4.170423	-7.371313	-0.710016	-8.047508	2.112087	-8.078158	0.670701	-1.546851	1.080191	-1.096924	0.069336	0.157715	0.042156	-0.073463	-0.007022	-0.315248	0.510599	0.490769	0.631707	90.601686	-72.654722	159.812329
33765		4.684334	-7.846865	-0.280375	-8.444385	2.725985	-7.609395	0.771569	-1.563409	1.532221	-1.102051	0.089355	0.177002	0.047464	-0.078096	-0.002736	-0.318209	0.518057	0.491728	0.623349	94.109713	-73.497009	156.608987
33766		5.597746	-7.478410	0.500961	-8.035853	3.452046	-6.493319	0.879277	-1.535968	1.963815	-1.093994	0.118164	0.191895	0.056669	-0.074252	0.005116	-0.322818	0.526242	0.491785	0.614007	98.093924	-74.525143	152.990694
33767		6.614615	-6.542463	1.180309	-7.107996	3.931954	-5.126241	0.942344	-1.447708	2.361489	-1.094971	0.146973	0.206543	0.066827	-0.064694	0.011979	-0.328962	0.534926	0.490750	0.603988	102.627754	-75.709118	148.859742
33768		7.384045	-5.627921	1.697240	-6.123183	4.245948	-4.020250	0.958155	-1.308595	2.728903	-1.091797	0.186523	0.218994	0.074488	-0.055348	0.017192	-0.336528	0.543945	0.488437	0.593550	107.867312	-77.023732	144.035494
33769		8.084489	-4.850443	1.818039	-5.304873	4.219799	-3.012926	0.966353	-1.149431	3.048921	-1.086426	0.226318	0.235596	0.081467	-0.047354	0.018417	-0.345358	0.553107	0.484878	0.582832	114.135268	-78.421478	138.189386
33770		8.859898	-4.045964	1.904365	-4.404542	4.159229	-1.952193	0.990692	-1.017390	3.329087	-1.076904	0.276855	0.240967	0.089159	-0.039074	0.019300	-0.355290	0.562356	0.480236	0.571750	122.080520	-79.833983	130.679580
33771		9.600848	-3.532293	2.081127	-3.663765	4.257619	-1.013592	0.927128	-0.904223	3.562688	-1.069336	0.318848	0.248779	0.096524	-0.033704	0.021088	-0.365855	0.571757	0.474390	0.560534	132.481835	-81.149897	120.674591
33772		10.616174	-2.556413	1.826473	-2.543349	3.844347	0.252790	0.888002	-0.824409	3.734760	-1.052979	0.367188	0.252197	0.106539	-0.023659	0.018596	-0.376849	0.581205	0.467617	0.549108	146.238360	-82.192864	107.289046
33773		11.496112	-1.612927	1.320127	-1.414546	3.175439	1.340981	0.811994	-0.758224	3.844157	-1.038818	0.417969	0.255371	0.115192	-0.013971	0.013578	-0.387923	0.590637	0.460012	0.537637	163.249632	-82.745107	90.602499
33774		12.290790	-0.675846	0.759929	-0.213450	2.437362	2.274164	0.639491	-0.702422	3.915590	-1.009277	0.464355	0.263184	0.122981	-0.004376	0.008015	-0.398656	0.600184	0.451434	0.526365	-178.524601	-82.641957	72.600761
33775		13.164263	0.121843	0.183076	0.931978	1.721568	3.206175	0.394933	-0.683312	3.937977	-0.988281	0.512695	0.264160	0.131577	0.003805	0.002286	-0.408591	0.609971	0.441928	0.515450	-162.347857	-81.871973	56.507016
33776		13.758929	0.678454	-0.018277	1.991095	1.387382	3.746603	0.095436	-0.692106	3.925191	-0.962646	0.548096	0.267822	0.137420	0.009483	0.000297	-0.417401	0.620124	0.431525	0.504984	-149.957616	-80.589896	44.028808
33777		13.517463	1.045911	-0.104506	2.822256	1.112500	3.400944	-0.164576	-0.696345	3.884441	-0.935059	0.585693	0.275879	0.134940	0.013081	-0.000585	-0.425123	0.630492	0.420435	0.494958	-141.101155	-78.994361	34.936751
33778		13.383626	2.036079	-0.200370	4.225446	0.655443	3.032556	-0.281918	-0.686891	3.827341	-0.906982	0.621094	0.277100	0.133420	0.022914	-0.001576	-0.432195	0.640729	0.409048	0.485132	-134.771462	-77.227049	28.305588
33779		13.351135	2.702248	-0.347971	5.289259	0.240262	2.742000	-0.314106	-0.662036	3.727030	-0.870361	0.654297	0.278809	0.132988	0.029499	-0.003084	-0.438806	0.650527	0.397704	0.475495	-130.176502	-75.392114	23.393014
33780		13.299801	3.962097	-0.319095	6.909073	-0.192146	2.224424	-0.083813	-0.643811	3.527574	-0.839844	0.683105	0.286865	0.132281	0.041957	-0.002782	-0.445582	0.659162	0.387374	0.465728	-126.733219	-73.575914	19.771466
33781		13.245854	6.377769	-0.056828	9.592832	-0.747905	1.301760	0.133608	-0.637268	3.194561	-0.811768	0.705078	0.281982	0.131418	0.065883	-0.000105	-0.452177	0.666454	0.378525	0.456173	-124.196843	-71.870787	17.196975
33782		13.531012	7.828769	0.318683	11.436446	-0.860636	0.814170	0.149484	-0.590905	2.771585	-0.790039	0.722900	0.288330	0.134198	0.080150	0.003644	-0.457846	0.672652	0.370923	0.447586	-122.388373	-70.354306	15.377571
33783		13.146041	7.676010	0.507846	11.488679	-0.707965	0.162065	0.249598	-0.467770	2.303091	-0.770264	0.738281	0.283447	0.130552	0.078260	0.005482	-0.462949	0.677357	0.364780	0.440228	-120.985837	-69.088489	14.036167
33784		12.641191	7.718791	0.735281	11.614318	-0.565556	-0.609346	0.441990	-0.378235	1.790471	-0.752930	0.751465	0.276611	0.125700	0.078299	0.007763	-0.467689	0.680411	0.360544	0.433954	-119.882406	-68.091244	13.124287
33785		12.030523	9.013910	0.696818	12.685282	-1.030689	-1.782286	0.621158	-0.279067	1.252914	-0.739746	0.755859	0.265625	0.119727	0.090868	0.007417	-0.472015	0.681810	0.358272	0.428926	-119.004063	-67.385410	12.561049
33786		11.472008	10.226320	0.479479	13.592742	-1.602375	-2.806786	0.668917	-0.158764	0.712572	-0.730957	0.760254	0.267578	0.114351	0.102654	0.005229	-0.475545	0.681848	0.357643	0.425478	-118.343786	-66.980805	12.261803
33787		11.109318	10.998030	0.007646	14.076286	-2.246696	-3.395241	0.668350	-0.049648	0.193186	-0.728516	0.758057	0.260986	0.110987	0.110086	0.000472	-0.478152	0.680710	0.358522	0.423634	-117.896825	-66.867702	12.193486
33788		10.637844	11.550905	-0.397618	14.310291	-2.761968	-3.953348	0.560240	0.031328	-0.284797	-0.730713	0.753418	0.245605	0.106542	0.115368	-0.003670	-0.479521	0.678798	0.360598	0.423394	-117.716541	-67.017855	12.347704
33789		10.642974	11.272849	-3.597774	13.325882	-5.672315	-3.214307	0.467668	0.004571	-0.725233	-0.741699	0.749023	0.248047	0.106837	0.112425	-0.035717	-0.479586	0.676358	0.364035	0.424283	-117.903861	-67.384541	12.842835
33790		10.904696	13.038420	-4.725988	14.750464	-7.105339	-3.241424	0.626587	-0.247105	-1.207522	-0.743408	0.739990	0.234863	0.109890	0.129869	-0.046717	-0.478692	0.673172	0.370030	0.425172	-118.644910	-67.924444	14.033543
33791		12.378670	7.723845	-5.499701	10.238694	-6.173983	0.196409	-0.122911	-0.211889	-1.601889	-0.751953	0.724854	0.246338	0.124458	0.076210	-0.054912	-0.474474	0.670936	0.375656	0.428488	-120.111701	-68.662651	15.537703
33792		10.902098	-14.479919	-1.552571	-9.789566	3.516412	5.111381	-0.947805	0.160291	-1.224025	-0.756348	0.718262	0.250977	0.108120	-0.145534	-0.014924	-0.468969	0.670527	0.377341	0.433677	-121.382282	-69.310120	16.318525
33793		12.844109	-17.140819	4.616568	-10.304984	10.450891	6.456123	-0.766312	0.445425	-1.066302	-0.766846	0.702881	0.249023	0.127629	-0.171912	0.046539	-0.464926	0.669335	0.378200	0.439088	-122.101854	-69.961860	16.618976
33794		15.711591	-7.049206	4.615433	-0.337771	7.923934	6.154102	-0.122162	0.553103	-1.634528	-0.777588	0.689453	0.244873	0.156660	-0.071746	0.045764	-0.461980	0.665285	0.382120	0.444921	-122.833306	-70.919798	17.325419
33795		12.209213	-3.282413	-0.349637	0.576948	1.779656	2.695533	0.616383	0.328424	-2.037497	-0.786133	0.673828	0.231934	0.121743	-0.034054	-0.003800	-0.460108	0.659205	0.389487	0.449498	-123.925818	-71.996155	18.851420
33796		11.751081	0.013688	-1.744703	2.925535	-0.476098	1.691298	0.654025	0.171455	-2.167668	-0.802979	0.649658	0.223633	0.117488	-0.001079	-0.017550	-0.457723	0.653044	0.397703	0.453713	-125.541980	-73.070668	20.943724
33797		14.174801	2.114653	0.145083	5.713581	1.093232	3.285716	0.411789	0.178236	-2.343069	-0.818115	0.629639	0.221924	0.141984	0.019481	0.001366	-0.454083	0.646998	0.405852	0.458788	-127.755578	-74.206887	23.497718
33798		11.464523	0.272171	-1.618696	2.627108	-0.348783	1.461186	0.528815	0.073074	-2.408471	-0.826416	0.614014	0.211182	0.114661	0.001384	-0.016224	-0.450410	0.640685	0.414682	0.463350	-130.527714	-75.301787	26.690284
33799		8.199594	-0.430905	-4.049454	0.492194	-2.829716	-1.119822	1.088259	-0.161165	-2.249871	-0.832764	0.598633	0.207275	0.081975	-0.005011	-0.040454	-0.448323	0.633899	0.424741	0.465590	-133.572221	-76.195547	30.475827
33800		8.298882	1.875273	-5.571755	2.306248	-4.766894	-1.129987	1.660726	-0.393152	-2.100415	-0.849854	0.578857	0.203125	0.083292	0.018340	-0.055401	-0.447852	0.626561	0.436133	0.465444	-136.849595	-76.881830	34.830376
33801		12.096675	5.759981	-1.217120	7.482825	-0.776852	1.340141	1.417072	-0.330356	-1.987964	-0.854004	0.567627	0.196777	0.121551	0.056477	-0.011568	-0.446919	0.619781	0.446366	0.465717	-140.342408	-77.491555	39.246109
33802		12.005839	4.593951	-0.638142	6.262051	0.148131	1.430624	0.822342	-0.076071	-1.810312	-0.864502	0.552246	0.188477	0.120470	0.044876	-0.006150	-0.445087	0.614040	0.454062	0.467633	-143.772600	-78.093250	43.243210
33803		11.414926	3.106259	-0.970202	4.489263	0.104364	1.174720	0.432045	0.001194	-1.678896	-0.877441	0.532227	0.190918	0.114405	0.030124	-0.009637	-0.442482	0.609248	0.460207	0.470357	-147.372771	-78.635989	47.172750
33804		10.541929	2.419509	-1.540169	3.441496	-0.398447	0.548454	-0.299838	-0.142464	-1.552307	-0.881592	0.523682	0.197754	0.105614	0.023353	-0.015362	-0.437605	0.606643	0.464557	0.473997	-151.629090	-79.015413	51.342067
33805		10.512385	3.240595	-0.861060	4.200613	0.124225	0.389776	-0.757407	0.168836	-1.402532	-0.883301	0.506104	0.198242	0.105340	0.031635	-0.008820	-0.432370	0.604631	0.466633	0.479304	-155.618512	-79.457436	54.962322
33806		10.773309	1.862285	-1.513457	2.607706	-0.213571	0.909944	-1.117194	0.213476	-1.309722	-0.892090	0.503906	0.202881	0.107835	0.017832	-0.015351	-0.426359	0.603449	0.467455	0.485339	-159.801940	-79.853703	58.568874
33807		9.970492	1.141867	-1.516347	1.681562	-0.200872	0.194526	-1.252054	0.222021	-1.128938	-0.895996	0.484131	0.200928	0.099750	0.010760	-0.015343	-0.420353	0.602926	0.467334	0.491307	-163.775685	-80.175109	61.876477
33808		9.891529	-0.164893	-1.362217	0.302067	0.213228	0.166653	-1.181943	0.156963	-1.061988	-0.902344	0.473145	0.205811	0.098894	-0.002255	-0.013688	-0.414562	0.602513	0.467311	0.496725	-167.763329	-80.410424	65.240602
33809		9.538400	-0.724073	-1.189784	-0.341594	0.466073	-0.190517	-0.871485	0.062063	-0.961524	-0.904053	0.459961	0.212646	0.095344	-0.007751	-0.011894	-0.409694	0.601914	0.467906	0.500913	-171.445192	-80.543332	68.468774
33810		10.077831	0.031655	-1.398608	0.283254	0.200064	0.355828	-0.612633	-0.022757	-0.900165	-0.910645	0.451172	0.208496	0.100780	-0.000180	-0.013975	-0.405564	0.601101	0.469144	0.504083	-174.878122	-80.590464	71.598455
33811		9.792880	0.529077	-1.752239	0.581053	-0.275243	0.128977	-0.578468	-0.029337	-0.822496	-0.910400	0.446777	0.215088	0.097952	0.004837	-0.017522	-0.401687	0.600420	0.470212	0.506996	-178.045209	-80.601427	74.473905
33812		9.587334	0.407361	-1.582664	0.410906	-0.093775	-0.096229	-0.530095	-0.059747	-0.747818	-0.910156	0.435791	0.219971	0.095892	0.003673	-0.015808	-0.398087	0.599858	0.471256	0.509525	179.075805	-80.569874	77.090660
33813		9.689676	0.505807	-1.583257	0.437466	-0.077045	0.008443	-0.433849	-0.100156	-0.685557	-0.916504	0.429199	0.213379	0.096921	0.004692	-0.015794	-0.394808	0.599364	0.472403	0.511590	176.498077	-80.496168	79.453151
33814		10.062435	0.857241	-1.647745	0.707869	-0.135889	0.394299	-0.384769	-0.143097	-0.624745	-0.914063	0.420410	0.220215	0.100662	0.008226	-0.016421	-0.391748	0.598997	0.473598	0.513265	174.209749	-80.384418	81.556494
33815		9.972732	1.072703	-1.807394	0.814911	-0.328254	0.341159	-0.399300	-0.143128	-0.554880	-0.918457	0.416016	0.213623	0.099769	0.010414	-0.018024	-0.388795	0.598837	0.474514	0.514849	172.198069	-80.264314	83.366306
33816		9.845489	1.060423	-1.797406	0.748466	-0.312740	0.218791	-0.422693	-0.117918	-0.487164	-0.922852	0.416016	0.224854	0.098491	0.010326	-0.017938	-0.386030	0.598785	0.475144	0.516406	170.427330	-80.154474	84.924855
33817		9.847219	1.037483	-1.852200	0.662753	-0.339521	0.233208	-0.490140	-0.081573	-0.424373	-0.922607	0.407471	0.231689	0.098501	0.010120	-0.018507	-0.383280	0.598939	0.475305	0.518125	168.834969	-80.063808	86.257364
33818		9.761685	0.529608	-1.682758	0.169780	-0.048093	0.105546	-0.449893	-0.054270	-0.370576	-0.922607	0.405273	0.233887	0.097631	0.005077	-0.016813	-0.380875	0.599044	0.475380	0.519706	167.443252	-79.988935	87.415327
33819		9.839228	0.478212	-1.733334	0.068946	-0.055900	0.189089	-0.374992	-0.039335	-0.324829	-0.922363	0.400879	0.238525	0.098403	0.004590	-0.017323	-0.378822	0.599095	0.475453	0.521079	166.246147	-79.923799	88.414057
33820		9.750046	0.194135	-1.593101	-0.201877	0.146963	0.065400	-0.284817	-0.018618	-0.287043	-0.926758	0.392090	0.236328	0.097505	0.001779	-0.015925	-0.377205	0.598988	0.475630	0.522212	165.214477	-79.872188	89.302033
33821		9.733596	0.256561	-1.667588	-0.190491	0.066883	0.063989	-0.189324	-0.024636	-0.265774	-0.924561	0.394287	0.238525	0.097341	0.002420	-0.016666	-0.375894	0.598786	0.475978	0.523072	164.318505	-79.817796	90.103257
33822		9.709148	0.476518	-1.931558	-0.075772	-0.237394	0.095056	-0.120119	-0.002899	-0.251312	-0.928711	0.385498	0.238770	0.097098	0.004632	-0.019317	-0.374900	0.598409	0.476447	0.523789	163.495009	-79.775615	90.876012
33823		9.640825	0.603323	-1.985467	0.006997	-0.329065	0.043438	-0.127750	0.032455	-0.230634	-0.928711	0.387695	0.234375	0.096412	0.005909	-0.019874	-0.374000	0.598022	0.476742	0.524606	162.703737	-79.754289	91.606894
33824		9.756176	0.579300	-2.026154	-0.052461	-0.339283	0.162579	-0.150184	0.064761	-0.217856	-0.928711	0.385498	0.234375	0.097561	0.005671	-0.020297	-0.373165	0.597600	0.476905	0.525531	161.908987	-79.751084	92.333390
33825		9.710145	0.612113	-1.806853	0.013700	-0.150318	0.081931	-0.183346	0.097280	-0.216485	-0.926270	0.378906	0.230225	0.097099	0.005999	-0.018121	-0.372289	0.597178	0.476889	0.526646	161.067278	-79.763909	93.083174
33826		9.642010	0.484090	-1.462791	-0.039871	0.193997	-0.050353	-0.195992	0.101482	-0.208933	-0.928467	0.381104	0.234375	0.096418	0.004726	-0.014682	-0.371431	0.596761	0.476839	0.527769	160.233870	-79.778548	93.822997
33827		9.620234	0.451008	-1.398342	-0.078585	0.256230	-0.084595	-0.169193	0.103163	-0.219722	-0.926270	0.376709	0.234619	0.096200	0.004393	-0.014037	-0.370600	0.596287	0.476857	0.528871	159.380411	-79.789980	94.592896
33828		9.778796	0.474596	-1.389526	-0.081146	0.282922	0.071350	-0.149039	0.094664	-0.225399	-0.930420	0.372314	0.232422	0.097787	0.004625	-0.013945	-0.369818	0.595761	0.476987	0.529893	158.529232	-79.793719	95.377498
33829		9.784577	0.651029	-1.583979	0.007760	0.049140	0.120502	-0.179122	0.096792	-0.230049	-0.935059	0.374512	0.236816	0.097845	0.006384	-0.015893	-0.368914	0.595296	0.477019	0.531016	157.644810	-79.795452	96.173052
33830		9.714485	0.566521	-1.418966	-0.053604	0.213470	0.018748	-0.195886	0.091361	-0.252823	-0.930420	0.367920	0.237061	0.097145	0.005528	-0.014239	-0.367910	0.594797	0.477110	0.532188	156.690224	-79.787043	97.035370
33831		9.781869	0.497542	-1.541779	-0.185574	0.127019	0.099878	-0.219596	0.082631	-0.269324	-0.932617	0.367920	0.234863	0.097819	0.004827	-0.015464	-0.366746	0.594347	0.477175	0.533436	155.688073	-79.767599	97.927031
33832		9.837324	0.587834	-1.591861	-0.147019	0.064299	0.168628	-0.242509	0.086680	-0.295388	-0.937012	0.369873	0.228027	0.098375	0.005714	-0.015968	-0.365474	0.593843	0.477272	0.534781	154.595872	-79.741138	98.901677
33833		9.717557	0.521833	-1.592825	-0.242491	0.060791	0.045188	-0.246153	0.091243	-0.325119	-0.938965	0.356689	0.228516	0.097177	0.005041	-0.015979	-0.364100	0.593281	0.477412	0.536216	153.417486	-79.706104	99.957132
33834		9.882909	0.529088	-1.739636	-0.321530	-0.049982	0.230825	-0.237870	0.095175	-0.356817	-0.936768	0.359131	0.237305	0.098830	0.005094	-0.017450	-0.362704	0.592586	0.477693	0.537678	152.157203	-79.660835	101.107360
33835		9.924961	0.517593	-1.802858	-0.394751	-0.098053	0.279758	-0.249266	0.109601	-0.389125	-0.938965	0.354492	0.232910	0.099250	0.004960	-0.018089	-0.361189	0.591822	0.477976	0.539285	150.791935	-79.609244	102.351281
33836		9.984954	0.563985	-1.844518	-0.411716	-0.138725	0.347562	-0.276574	0.113394	-0.428307	-0.936523	0.347900	0.230957	0.099851	0.005400	-0.018509	-0.359518	0.590977	0.478319	0.541022	149.313143	-79.542831	103.700072
33837		10.140026	0.445623	-1.728875	-0.548882	0.033485	0.468609	-0.304412	0.116012	-0.473174	-0.947266	0.341309	0.226563	0.101400	0.004190	-0.017354	-0.357623	0.590085	0.478684	0.542924	147.716367	-79.457732	105.147847
33838		10.124447	0.280156	-1.708100	-0.756626	0.102011	0.430229	-0.312289	0.107084	-0.532483	-0.940430	0.334717	0.231201	0.101242	0.002505	-0.017139	-0.355549	0.589058	0.479246	0.544902	146.004821	-79.342237	106.714423
33839		10.362687	0.433885	-1.889563	-0.741042	-0.064068	0.703507	-0.312781	0.110915	-0.590327	-0.949219	0.328125	0.229004	0.103629	0.004003	-0.018960	-0.353292	0.587904	0.479933	0.547008	144.181855	-79.200730	108.388613
33840		10.461210	0.413220	-2.057121	-0.889348	-0.190706	0.818004	-0.343157	0.134659	-0.657837	-0.948975	0.321533	0.229248	0.104611	0.003753	-0.020648	-0.350841	0.586544	0.480717	0.549352	142.186477	-79.036667	110.227208
33841		10.603924	0.519848	-2.210427	-0.926666	-0.332555	0.986825	-0.408719	0.155730	-0.733565	-0.948730	0.314941	0.231689	0.106040	0.004764	-0.022197	-0.348008	0.585074	0.481469	0.552057	140.004207	-78.842201	112.213358
33842		10.565284	0.467039	-2.000362	-1.000785	-0.118425	0.903115	-0.497182	0.176932	-0.810753	-0.952881	0.303955	0.229736	0.105653	0.004192	-0.020108	-0.344774	0.583477	0.482184	0.555143	137.641393	-78.612831	114.338969
33843		10.504425	0.281427	-1.918019	-1.246798	0.012902	0.796050	-0.572567	0.192375	-0.901088	-0.957031	0.295166	0.227783	0.105037	0.002286	-0.019288	-0.341070	0.581759	0.482886	0.558613	135.118729	-78.336663	116.579918
33844		10.395764	0.077279	-2.054758	-1.584627	-0.061529	0.665094	-0.634275	0.219893	-0.995292	-0.961182	0.284180	0.225830	0.103937	0.000190	-0.020663	-0.337007	0.579798	0.483656	0.562439	132.446804	-78.012454	118.945471
33845		11.072832	-0.052187	-1.820718	-1.823671	0.333558	1.254684	-0.707315	0.254602	-1.102099	-0.967529	0.270752	0.221680	0.110700	-0.001197	-0.018345	-0.332475	0.577605	0.484423	0.566716	129.621069	-77.632268	121.422832
33846		11.972240	-0.006551	-1.508976	-1.925029	0.788132	2.073544	-0.746032	0.321522	-1.226786	-0.966797	0.251221	0.224365	0.119694	-0.000857	-0.015280	-0.327657	0.574928	0.485339	0.571440	126.611137	-77.193468	124.076809
33847		12.196276	-0.771183	-0.993795	-2.657066	1.563856	2.054209	-0.803602	0.368017	-1.353221	-0.966309	0.238037	0.220215	0.121888	-0.008577	-0.010129	-0.322372	0.571901	0.486315	0.576631	123.497018	-76.680396	126.802141
33848		12.288912	-0.737644	-0.513498	-2.653272	2.032586	2.046938	-0.767489	0.418888	-1.510344	-0.963623	0.220459	0.220703	0.122818	-0.008324	-0.005362	-0.316869	0.568221	0.487758	0.582075	120.337578	-76.073439	129.607679
33849		12.530217	-0.678613	-0.789342	-2.934475	1.818527	2.277294	-0.699357	0.472651	-1.666570	-0.976563	0.207031	0.216553	0.125221	-0.007858	-0.008163	-0.311180	0.563874	0.489689	0.587723	117.206745	-75.367470	132.425965
33850		12.841045	-0.555786	-1.550303	-3.376817	1.148385	2.632297	-0.676928	0.527799	-1.840788	-0.980225	0.180664	0.210693	0.128310	-0.006792	-0.015820	-0.305178	0.558826	0.492071	0.593671	114.112643	-74.548620	135.235062
33851		13.165451	-0.471367	-2.154921	-3.840424	0.639660	2.955635	-0.696784	0.602287	-1.984266	-0.984131	0.160645	0.199951	0.131533	-0.006095	-0.021926	-0.298814	0.553197	0.494600	0.600045	111.070532	-73.632347	137.984290
33852		13.561629	-0.093807	-2.180188	-3.879850	0.582241	3.350865	-0.729533	0.657004	-2.134449	-0.992188	0.138672	0.193848	0.135523	-0.002465	-0.022240	-0.292043	0.546981	0.497332	0.606782	108.138086	-72.607706	140.619780
33853		13.909378	-0.634691	-2.006731	-4.697387	1.009945	3.408695	-0.811152	0.690410	-2.301576	-0.991455	0.112305	0.190186	0.138938	-0.008029	-0.020517	-0.284545	0.540315	0.500119	0.613983	105.339921	-71.459812	143.073857
33854		14.988732	-0.965241	-1.288227	-5.340693	2.014412	4.139354	-0.796777	0.746302	-2.460517	-0.992676	0.085693	0.179688	0.149704	-0.011548	-0.013398	-0.276732	0.532934	0.503248	0.621403	102.712868	-70.197079	145.380556
33855		16.505766	-1.681887	-1.197775	-6.751630	2.662127	5.154427	-0.729347	0.798825	-2.630420	-0.993896	0.052734	0.169434	0.164768	-0.019032	-0.012570	-0.268607	0.524800	0.506837	0.628929	100.296041	-68.812699	147.515619
33856		16.204360	-2.435227	-1.417286	-7.818516	2.696097	4.403594	-0.719821	0.772667	-2.809034	-0.995361	0.024170	0.167969	0.161624	-0.026677	-0.014705	-0.259874	0.516134	0.510888	0.636447	98.162903	-67.296756	149.380521
33857		17.216926	-2.715641	-1.062044	-8.695072	3.374421	4.949068	-0.735972	0.717207	-3.020912	-0.998535	-0.011230	0.153320	0.171693	-0.029793	-0.011130	-0.250170	0.507037	0.515347	0.644008	96.309019	-65.632817	150.943737
33858		19.282800	-4.487040	-1.418419	-11.564745	4.146422	5.775747	-0.771931	0.736615	-3.226151	-0.997559	-0.046387	0.147705	0.192017	-0.048028	-0.014711	-0.239754	0.497215	0.520085	0.651771	94.607767	-63.834895	152.346600
33859		20.723177	-5.611811	-2.636571	-14.082771	3.809749	6.156219	-0.749486	0.731140	-3.436405	-0.994141	-0.083740	0.133057	0.206128	-0.059766	-0.026901	-0.228565	0.486728	0.525228	0.659538	93.107863	-61.900129	153.550541
33860		20.650902	-5.809974	-3.580472	-15.150116	3.110645	5.477133	-0.821168	0.709385	-3.580208	-0.986084	-0.123291	0.127441	0.205295	-0.061930	-0.036285	-0.216686	0.475786	0.530390	0.667354	91.754941	-59.870307	154.576673
33861		20.879648	-5.368746	-3.405072	-15.392409	3.302775	5.303000	-1.014940	0.706565	-3.697650	-0.984863	-0.160889	0.113037	0.207633	-0.057708	-0.034500	-0.203776	0.464645	0.534936	0.675591	90.440736	-57.761472	155.434254
33862		20.950424	-4.397830	-2.118004	-14.722033	4.290054	5.271901	-1.242895	0.820113	-3.772663	-0.972412	-0.204834	0.100830	0.208535	-0.048052	-0.021746	-0.190474	0.452847	0.538658	0.684468	89.031043	-55.600594	156.296759
33863		20.534481	-3.344719	-2.415798	-14.424935	3.668911	4.921258	-1.432880	1.106172	-3.777934	-0.966797	-0.244385	0.088623	0.204525	-0.037493	-0.025032	-0.177247	0.440166	0.541139	0.694266	87.418319	-53.419073	157.270292
33864		19.478215	-2.753448	-2.081451	-13.854828	3.569408	3.846136	-1.386641	1.345572	-3.778915	-0.956543	-0.279785	0.065186	0.194069	-0.031355	-0.021913	-0.165022	0.426171	0.543514	0.704087	85.794043	-51.215404	158.371540
33865		19.123354	-0.827191	-2.071739	-12.872653	2.839607	4.217960	-0.905592	1.380412	-3.769377	-0.948730	-0.314941	0.055176	0.190882	-0.011969	-0.021987	-0.153549	0.411740	0.547107	0.712437	84.552097	-48.998544	159.315238
33866		17.613955	-3.036303	-4.015146	-14.733538	1.499924	0.968063	-0.385260	1.281382	-3.564441	-0.932129	-0.345703	0.038330	0.175298	-0.033571	-0.041214	-0.143978	0.397345	0.552209	0.718646	83.752270	-46.895824	160.161928
33867		14.475498	-5.281438	-6.722158	-15.582933	-0.936779	-3.576327	0.380042	1.056047	-3.219373	-0.922363	-0.376465	0.034668	0.143523	-0.055003	-0.068085	-0.136069	0.384345	0.559133	0.721896	83.561335	-44.997496	160.732164
33868		10.842709	-7.693412	-8.193960	-15.361435	-2.422767	-8.385156	0.767765	0.831393	-2.694227	-0.912598	-0.402832	0.028564	0.107038	-0.078066	-0.082685	-0.130553	0.372958	0.566650	0.723025	83.707259	-43.414537	161.217260
33869		8.003832	-8.914545	-6.966250	-13.658210	-1.692787	-11.437284	0.617297	0.824403	-2.108778	-0.905273	-0.422607	0.026855	0.078805	-0.089764	-0.070265	-0.126416	0.363589	0.572241	0.724129	83.750652	-42.163736	161.675769
33870		5.569059	-3.674112	-4.799809	-7.948019	-2.010810	-9.233386	0.620460	0.793383	-1.833910	-0.895996	-0.437988	0.022949	0.055160	-0.037099	-0.048332	-0.123557	0.354791	0.577455	0.724846	83.806055	-41.074141	162.185537
33871		7.124765	1.751686	-3.958636	-5.585210	-2.523111	-4.161126	1.216850	0.035124	-1.841688	-0.888916	-0.448730	0.034424	0.071399	0.017100	-0.039494	-0.119143	0.348588	0.585079	0.722477	84.579591	-40.024120	162.069968
33872		7.536740	2.119157	-1.280121	-4.759504	0.005304	-3.466171	1.024156	-0.096797	-1.357857	-0.888672	-0.453125	0.036621	0.075515	0.020744	-0.012658	-0.116077	0.344108	0.591323	0.720036	85.269736	-39.258393	161.958943
33873		5.994252	-3.897979	-1.792793	-7.297105	0.813594	-9.157324	0.953335	0.107866	-0.568407	-0.886475	-0.457520	0.039063	0.059822	-0.039064	-0.018146	-0.115995	0.341496	0.595665	0.717711	85.788606	-38.930673	162.004188
33874		2.862442	-9.942743	-3.551041	-9.086944	-0.082457	-15.902068	1.210314	0.280606	0.426375	-0.886963	-0.444092	0.045166	0.028786	-0.099149	-0.036151	-0.120811	0.340773	0.599265	0.714255	86.338658	-39.167799	162.289850
33875		1.596621	-10.271296	-3.971227	-8.549805	-0.804821	-16.888690	1.106664	0.205675	1.230094	-0.895996	-0.435547	0.047119	0.016555	-0.102390	-0.040296	-0.127709	0.343060	0.600980	0.710510	86.843264	-39.866091	162.495178
33876		1.833933	-7.650304	-3.143784	-6.977128	-0.688277	-14.568494	0.742240	0.117615	1.824249	-0.905762	-0.411133	0.059814	0.019017	-0.076214	-0.031732	-0.136189	0.347360	0.600544	0.707206	87.165218	-40.910943	162.712072
33877		2.523214	-4.250218	-2.353858	-5.200691	-0.637409	-11.399170	0.523556	0.043336	2.268128	-0.917725	-0.382813	0.052490	0.025706	-0.042151	-0.023655	-0.145247	0.353652	0.598390	0.704105	87.390712	-42.209582	162.826135
33878		3.250347	-2.084253	-1.725941	-4.159010	-0.429538	-9.176380	0.357915	-0.016492	2.661129	-0.927246	-0.363281	0.052002	0.032778	-0.020377	-0.017293	-0.155542	0.361127	0.595060	0.700926	87.542421	-43.737901	162.958854
33879		3.875899	-0.442572	-1.451302	-3.395164	-0.457778	-7.449047	0.189060	-0.067670	3.057465	-0.939697	-0.325928	0.059814	0.038825	-0.003819	-0.014504	-0.166386	0.370286	0.590189	0.697769	87.618342	-45.491511	163.006676
33880		4.590885	0.010132	-1.661306	-3.547630	-0.656936	-6.523787	-0.035152	-0.085751	3.516476	-0.951660	-0.295166	0.056885	0.045905	0.000906	-0.016593	-0.178699	0.380657	0.583720	0.694578	87.560998	-47.511379	163.117742
33881		5.068865	-0.619236	-1.766934	-4.208593	-0.541115	-6.467469	-0.179879	-0.107351	3.981741	-0.961914	-0.253662	0.053467	0.050808	-0.005197	-0.017637	-0.191843	0.392749	0.575500	0.691190	87.416670	-49.794992	163.174253
33882		5.476203	-1.194735	-1.542876	-4.665679	-0.148102	-6.348418	-0.151573	-0.172430	4.395925	-0.974365	-0.207520	0.056641	0.055020	-0.010752	-0.015373	-0.206605	0.405753	0.566581	0.686779	87.308607	-52.320460	163.265583
33883		6.191317	-1.048211	-1.283542	-4.720260	0.133663	-5.479968	0.026150	-0.284493	4.742453	-0.980469	-0.156982	0.064209	0.062157	-0.009008	-0.012748	-0.222086	0.420035	0.557187	0.681022	87.376499	-55.044064	163.201407
33884		7.246805	-0.534462	-1.198559	-4.637148	0.176097	-4.094912	0.270606	-0.421076	4.991775	-0.988525	-0.110840	0.069824	0.072596	-0.003518	-0.011838	-0.238807	0.434664	0.548140	0.673484	87.710540	-57.916879	163.050144
33885		8.017635	0.243241	-1.306332	-4.122508	-0.103279	-2.810740	0.513144	-0.545376	5.203162	-0.997070	-0.058105	0.079346	0.080112	0.004550	-0.012835	-0.255873	0.450009	0.539026	0.664433	88.363466	-60.908768	162.634809
33886		8.540567	0.672452	-1.559179	-3.698445	-0.474873	-1.944919	0.556443	-0.667079	5.395803	-0.991943	-0.005371	0.084717	0.085233	0.009069	-0.015284	-0.273494	0.465660	0.529590	0.654138	89.294910	-64.012639	161.998857
33887		9.071244	0.886080	-1.929160	-3.400559	-0.896894	-1.186968	0.574133	-0.798918	5.595414	-0.993408	0.045166	0.092285	0.090492	0.011449	-0.018899	-0.290912	0.482126	0.519322	0.642829	90.633636	-67.220684	160.892033
33888		9.634677	0.825524	-2.031841	-3.176310	-0.989469	-0.509937	0.547420	-0.924515	5.783630	-0.990723	0.098145	0.104248	0.096146	0.011093	-0.019846	-0.308598	0.498908	0.508461	0.630338	92.558480	-70.523934	159.216278
33889		10.014029	0.742501	-2.240137	-2.867425	-1.196523	-0.006326	0.520486	-1.052956	5.951281	-0.979248	0.155273	0.109375	0.099975	0.010459	-0.021850	-0.325840	0.516332	0.496651	0.616902	95.483117	-73.885605	156.460456
33890		10.945440	1.321048	-2.241652	-1.936148	-1.344313	1.186243	0.482532	-1.183536	6.129023	-0.965332	0.208252	0.119141	0.109110	0.016611	-0.021733	-0.343152	0.533994	0.484190	0.602210	100.249043	-77.279292	151.872431
33891		11.983648	1.382799	-2.209472	-1.338986	-1.301350	2.306056	0.281434	-1.342974	6.337969	-0.955811	0.260986	0.128906	0.119462	0.017648	-0.021269	-0.359562	0.552625	0.470169	0.586738	108.922792	-80.610598	143.204504
33892		13.738066	1.589099	-2.000353	-0.455007	-1.070727	4.109799	0.081491	-1.544706	6.551367	-0.939697	0.316162	0.145264	0.136911	0.020389	-0.018937	-0.375418	0.571939	0.455016	0.570006	127.415894	-83.544917	124.634131
33893		15.867347	1.539628	-1.519859	0.527837	-0.477486	6.182438	-0.135793	-1.763656	6.762150	-0.926025	0.375732	0.163818	0.158158	0.020741	-0.013815	-0.390066	0.592260	0.438329	0.552217	165.579498	-84.916910	86.215991
33894		17.734525	1.210089	-1.262262	1.501384	-0.036420	7.940549	-0.149658	-1.962280	6.995266	-0.896484	0.431152	0.180176	0.176890	0.018285	-0.010897	-0.404579	0.612786	0.420918	0.532577	-155.732609	-83.363562	47.295396
33895		19.475144	2.152581	-1.836043	3.709169	-0.791613	9.493367	0.148669	-2.165515	7.133643	-0.875977	0.488525	0.200928	0.194002	0.028468	-0.016237	-0.419197	0.632842	0.403549	0.510816	-136.961384	-80.018806	28.423818
33896		21.289861	3.957754	-1.654668	7.219941	-1.101573	10.634810	0.582865	-2.209774	7.112730	-0.844482	0.543701	0.215088	0.211476	0.047160	-0.014074	-0.434623	0.651073	0.387048	0.487238	-127.984579	-76.142650	19.630584
33897		25.116831	9.086009	0.023039	14.900598	-0.946325	12.327336	0.697380	-1.830605	6.918042	-0.810547	0.601318	0.224854	0.247808	0.099465	0.002846	-0.449929	0.666987	0.369958	0.464568	-122.516233	-72.294305	14.367909
33898		26.442437	8.577755	2.927144	17.188882	1.884301	12.142946	0.570380	-1.205300	6.601561	-0.773926	0.645508	0.235107	0.261220	0.094349	0.031113	-0.464830	0.680246	0.351934	0.444230	-118.443358	-68.677879	10.428975
33899		24.312642	6.386662	2.324195	15.624644	1.632666	9.943653	0.543398	-0.907778	5.912170	-0.739746	0.687500	0.236328	0.240989	0.070947	0.024525	-0.478011	0.691099	0.334985	0.426230	-115.591012	-65.420893	7.672123
33900		20.630485	7.311612	0.290604	15.356633	-0.967239	5.752952	0.747777	-0.898930	5.142782	-0.709717	0.727295	0.241943	0.204318	0.078373	0.004114	-0.489996	0.699538	0.320966	0.409305	-113.603555	-62.522681	5.963895
33901		19.688337	12.900549	-1.090012	19.990664	-4.138926	1.951400	0.854061	-0.975774	4.261255	-0.677246	0.760498	0.241211	0.194123	0.133204	-0.009386	-0.500025	0.706111	0.310120	0.393963	-112.314827	-60.054384	5.054103
33902		17.086522	20.680208	-1.784083	25.365171	-7.283052	-4.685013	0.434738	-0.955281	3.448954	-0.655518	0.778076	0.247559	0.167346	0.209745	-0.016582	-0.506887	0.712087	0.301249	0.381113	-111.673475	-58.013061	4.620032
33903		13.008087	23.794085	0.177841	26.301243	-6.515721	-10.884136	0.187740	-0.823339	2.566524	-0.640381	0.793701	0.253906	0.127004	0.239582	0.002530	-0.511170	0.716984	0.294527	0.371341	-111.408376	-56.470022	4.434143
33904		13.990600	24.576416	5.363829	28.642851	-1.691507	-12.096311	0.507785	-0.704288	1.401120	-0.640869	0.802490	0.255859	0.137989	0.246597	0.054752	-0.514572	0.719024	0.292261	0.364422	-111.240389	-55.571762	4.589898
33905		15.094660	23.626755	6.377440	28.720543	-0.196991	-11.165497	0.808569	-0.385795	0.179468	-0.640869	0.809082	0.251221	0.150610	0.236142	0.065020	-0.517247	0.717904	0.294078	0.361369	-111.022637	-55.394136	4.889319
33906		16.274774	21.237165	3.997718	26.974466	-1.462239	-8.364837	0.934404	-0.003736	-1.042815	-0.656250	0.795654	0.247070	0.163851	0.211329	0.040969	-0.518719	0.713944	0.299517	0.362636	-110.801512	-55.948393	5.273588
33907		15.619373	20.540645	1.377432	25.496466	-3.595495	-7.631620	0.535391	0.384921	-2.115174	-0.678223	0.788818	0.238281	0.158381	0.203702	0.014018	-0.517349	0.708649	0.307021	0.368653	-110.834396	-57.157543	5.682050
33908		14.090815	18.046890	1.008167	22.514634	-3.207481	-6.980346	0.234085	0.595848	-2.950115	-0.701904	0.766602	0.234375	0.143579	0.178352	0.009866	-0.513612	0.702337	0.316333	0.377967	-111.158962	-58.855393	6.225612
33909		12.517861	8.069980	-9.497781	11.103859	-10.546448	-1.010028	0.433950	0.101695	-3.486670	-0.725830	0.746826	0.234863	0.126514	0.078708	-0.094870	-0.508638	0.695411	0.329085	0.386514	-112.081503	-60.732120	7.581998
33910		8.060689	-27.469108	-12.548824	-22.215874	-4.231910	11.763162	0.049282	-0.378575	-2.195921	-0.736816	0.738037	0.235107	0.077822	-0.275525	-0.125407	-0.503925	0.692362	0.337764	0.390652	-113.303640	-61.807070	9.010391
33911		5.912566	-35.374000	1.563885	-27.448580	11.354500	10.345888	-0.590361	0.708541	-0.672714	-0.747559	0.729248	0.246338	0.057993	-0.353889	0.016477	-0.501765	0.691322	0.337148	0.395773	-113.225397	-62.319472	8.540304
33912		19.320665	-0.776900	17.703741	11.803251	18.486086	4.548666	-0.260043	1.157534	-1.670279	-0.769775	0.722412	0.235352	0.194154	-0.009159	0.175927	-0.499499	0.686838	0.339485	0.404357	-112.914695	-63.457065	8.025740
33913		24.615072	5.761442	6.306745	16.932615	6.115436	9.020595	1.358251	0.672494	-3.147767	-0.789307	0.706543	0.215820	0.247223	0.053303	0.062609	-0.498874	0.676643	0.351309	0.412142	-112.858128	-65.266460	8.827492
33914		14.361854	-3.265168	-5.591441	1.732827	-3.652613	5.413486	2.422343	0.099334	-2.848304	-0.804199	0.684326	0.202881	0.143113	-0.034011	-0.056392	-0.501298	0.665281	0.365622	0.415237	-112.774760	-66.790467	10.256264
33915		21.344738	4.988464	0.669075	12.634028	1.096123	8.077833	0.864338	0.056619	-3.108825	-0.832520	0.664551	0.201172	0.214190	0.046530	0.006836	-0.497766	0.657233	0.377568	0.421564	-113.921202	-68.436831	12.032864
33916		17.745087	7.274296	-2.102290	12.433190	-2.208157	4.772508	0.192023	0.106417	-3.405336	-0.851563	0.635742	0.197266	0.178644	0.069728	-0.021050	-0.491358	0.650012	0.388840	0.429947	-115.840404	-70.230570	14.202456
33917		10.315993	2.043655	-8.767263	3.630913	-8.057944	0.643929	1.040168	-0.309838	-3.332350	-0.868652	0.613525	0.186768	0.103622	0.019168	-0.087410	-0.486906	0.641550	0.402608	0.435020	-118.231232	-71.849044	17.361517
33918		10.428544	2.141931	-3.223527	4.474980	-2.515720	0.054999	1.762832	-0.799109	-3.128065	-0.876953	0.587158	0.189697	0.104734	0.020064	-0.031637	-0.484075	0.632598	0.418352	0.436432	-121.307554	-73.176210	21.646677
33919		10.991722	3.085789	2.179368	6.072198	2.829333	-0.315197	1.336422	-0.578335	-2.775570	-0.894043	0.569336	0.183350	0.110266	0.029181	0.022311	-0.480985	0.624748	0.431396	0.438453	-124.459863	-74.330391	25.728617
33920		7.990968	4.871900	-2.986451	6.178197	-2.724472	-2.677352	1.404000	-0.372246	-2.384270	-0.904541	0.549561	0.183838	0.080540	0.047969	-0.029376	-0.479302	0.616990	0.442774	0.439936	-127.241107	-75.311244	29.444855
33921		12.005917	4.727959	-3.354784	6.733486	-2.434378	1.433557	0.846130	-0.308487	-2.195680	-0.917480	0.531982	0.184326	0.120621	0.046098	-0.033165	-0.476374	0.610743	0.452118	0.442324	-130.401772	-76.178934	33.207181
33922		12.992461	4.701133	-0.864665	6.962934	0.198607	2.150771	-0.246033	0.373185	-1.904598	-0.923584	0.516602	0.182373	0.130348	0.045760	-0.008946	-0.472238	0.606175	0.456481	0.448518	-132.926474	-77.134602	35.658096
33923		9.657586	2.299536	-1.606762	3.716933	-0.665119	-0.491915	-0.998293	0.621840	-1.824603	-0.929688	0.499023	0.180664	0.096729	0.022032	-0.016480	-0.466520	0.602944	0.458278	0.456944	-135.662632	-78.129782	37.874792
33924		10.040936	0.270223	-1.210013	1.642800	0.014326	0.170033	-1.486044	0.802592	-1.790216	-0.942383	0.474609	0.176758	0.100378	0.001712	-0.012518	-0.459757	0.600438	0.458371	0.466897	-138.702967	-79.162567	40.107653
33925		9.993067	-0.050574	-1.441031	1.088088	-0.216430	0.222564	-1.503773	0.762446	-1.673895	-0.953125	0.457031	0.179443	0.099865	-0.001452	-0.014783	-0.453059	0.598244	0.458102	0.476429	-142.078037	-80.108761	42.663897
33926		9.832220	-0.448407	-1.138765	0.546846	0.095222	0.079741	-1.023511	0.536452	-1.431748	-0.957031	0.446045	0.175293	0.098255	-0.005247	-0.011626	-0.447801	0.595987	0.458713	0.483586	-145.524703	-80.839732	45.564870
33927		9.837847	-1.015716	-0.219779	0.001708	1.083127	0.020355	-0.351282	0.276210	-1.245109	-0.961182	0.435059	0.179932	0.098310	-0.010773	-0.002315	-0.444376	0.593245	0.460947	0.487974	-149.005531	-81.356876	48.885553
33928		9.801375	-0.940805	-0.375874	-0.071008	0.915498	-0.002019	0.005522	0.110365	-1.079827	-0.963379	0.428467	0.173340	0.097959	-0.009937	-0.003813	-0.442011	0.590473	0.463912	0.490666	-152.415689	-81.713161	52.337178
33929		9.892156	0.903052	-0.853141	1.564778	0.139156	0.032586	-0.072065	0.065978	-0.984068	-0.971924	0.421875	0.180176	0.098962	0.008541	-0.008567	-0.439540	0.588189	0.466490	0.493180	-155.878383	-81.991310	55.794637
33930		9.753092	1.019301	-1.363377	1.486667	-0.386399	-0.032076	-0.234541	0.078896	-0.927138	-0.971680	0.408447	0.173828	0.097571	0.009725	-0.013684	-0.436747	0.586348	0.468460	0.495976	-159.428866	-82.233587	59.244008
33931		9.813515	0.029793	-1.737921	0.366728	-0.560098	0.131033	-0.189945	0.082334	-0.802088	-0.975830	0.402100	0.180664	0.098128	-0.000112	-0.017420	-0.434399	0.584683	0.470158	0.498392	-162.641344	-82.425894	62.376854
33932		10.110250	0.490021	-1.412411	0.818209	-0.283652	0.370723	-0.053909	0.058455	-0.686623	-0.977783	0.395264	0.174316	0.101114	0.004549	-0.014155	-0.432669	0.583046	0.471901	0.500165	-165.465871	-82.564689	65.195136
33933		10.346456	1.209999	-1.297991	1.491515	-0.269432	0.574827	-0.221200	0.080635	-0.600049	-0.977783	0.393311	0.180908	0.103495	0.011775	-0.013035	-0.430720	0.581912	0.472921	0.502200	-168.085504	-82.686740	67.710009
33934		10.146158	0.945323	-0.862811	1.236519	0.178922	0.337254	-0.486863	0.107791	-0.529704	-0.977539	0.382080	0.174561	0.101481	0.009163	-0.008705	-0.428228	0.581443	0.473004	0.504789	-170.608332	-82.802114	69.972408
33935		9.870345	0.506729	-1.384044	0.640482	-0.285161	0.142424	-0.650984	0.134991	-0.477746	-0.984131	0.380127	0.181152	0.098706	0.004786	-0.013923	-0.425454	0.581369	0.472458	0.507722	-173.043264	-82.916134	72.051663
33936		9.769671	0.149905	-1.846321	0.141008	-0.684531	0.106440	-0.681104	0.162722	-0.454129	-0.981445	0.371094	0.177002	0.097685	0.001214	-0.018547	-0.422706	0.581336	0.471699	0.510752	-175.448074	-83.033673	74.082048
33937		9.855434	-0.162820	-1.796648	-0.210795	-0.570476	0.188007	-0.655141	0.191414	-0.434680	-0.988281	0.371094	0.177002	0.098533	-0.001901	-0.018055	-0.420148	0.581210	0.470882	0.513751	-177.808812	-83.156473	76.083113
33938		9.769603	-0.098028	-1.435433	-0.131820	-0.249813	0.058240	-0.605033	0.198174	-0.424639	-0.983643	0.362549	0.179443	0.097679	-0.001231	-0.014448	-0.417769	0.580974	0.470145	0.516624	179.828592	-83.273122	78.114434
33939		9.643618	-0.393389	-0.945125	-0.372613	0.266876	-0.125731	-0.552359	0.182743	-0.429932	-0.987793	0.353516	0.179688	0.096419	-0.004167	-0.009528	-0.415490	0.580650	0.469584	0.519331	177.402990	-83.370652	80.239156
33940		9.643241	-0.642589	-0.815846	-0.636835	0.441414	-0.144697	-0.432575	0.162914	-0.444977	-0.987793	0.353516	0.173096	0.096411	-0.006658	-0.008223	-0.413463	0.580087	0.469412	0.521728	174.912717	-83.445592	82.497163
33941		9.863429	-0.277364	-0.634478	-0.285900	0.560949	0.054942	-0.299833	0.124065	-0.462334	-0.991943	0.349121	0.175293	0.098624	-0.003011	-0.006402	-0.411686	0.579304	0.469714	0.523728	172.390669	-83.485903	84.863976
33942		9.904849	0.556003	-1.080891	0.378517	-0.050627	0.159144	-0.346867	0.105702	-0.482848	-0.993896	0.340332	0.175537	0.099056	0.005302	-0.010871	-0.409673	0.578608	0.469990	0.525823	169.727148	-83.501868	87.346500
33943		10.050137	1.142630	-1.489338	0.803078	-0.560564	0.364223	-0.535553	0.086114	-0.511546	-0.998291	0.338135	0.182129	0.100524	0.011129	-0.014967	-0.406987	0.578281	0.469884	0.528357	166.832885	-83.489758	89.951863
33944		9.866637	1.311366	-1.622275	0.873786	-0.747653	0.206251	-0.740128	0.049308	-0.527906	-0.991455	0.329346	0.180176	0.098696	0.012793	-0.016295	-0.403571	0.578418	0.469352	0.531293	163.806969	-83.439629	92.571770
33945		9.979032	0.876059	-1.193204	0.487473	-0.213713	0.261470	-0.854188	-0.002496	-0.527288	-0.995605	0.322998	0.184814	0.099813	0.008446	-0.011967	-0.399697	0.578912	0.468608	0.534330	160.854302	-83.345867	95.052681
33946		10.146358	-0.184489	-0.782911	-0.503161	0.469437	0.342199	-0.838401	0.000479	-0.540764	-0.997803	0.316406	0.187256	0.101458	-0.002152	-0.007821	-0.395828	0.579320	0.467929	0.537356	157.922710	-83.236386	97.521755
33947		10.007925	-0.600831	-0.902248	-0.993531	0.461051	0.193990	-0.715734	-0.013747	-0.579007	-1.002197	0.316406	0.189453	0.100062	-0.006330	-0.008993	-0.392172	0.579421	0.467707	0.540114	155.018827	-83.096220	100.034582
33948		10.008780	-0.239444	-1.737119	-0.925689	-0.409627	0.297973	-0.644434	-0.034503	-0.621610	-1.004150	0.305420	0.189697	0.100083	-0.002761	-0.017345	-0.388549	0.579326	0.467832	0.542719	152.135707	-82.919548	102.568371
33949		10.135308	-0.389462	-1.537178	-1.091616	-0.139393	0.386700	-0.643706	-0.025390	-0.667362	-1.001465	0.296631	0.187744	0.101341	-0.004282	-0.015346	-0.384819	0.579087	0.468064	0.545425	149.195105	-82.719226	105.161670
33950		10.223321	-0.169462	-1.622495	-0.982318	-0.243038	0.490365	-0.663342	-0.025438	-0.718685	-1.001221	0.283447	0.194580	0.102228	-0.002116	-0.016205	-0.380885	0.578748	0.468385	0.548263	146.208500	-82.486638	107.791878
33951		10.346819	-0.144251	-1.650257	-1.054638	-0.234272	0.610026	-0.680234	-0.008654	-0.790617	-1.010010	0.283447	0.190186	0.103462	-0.001908	-0.016492	-0.376733	0.578217	0.468820	0.551313	143.104412	-82.220430	110.531752
33952		10.323797	-0.334173	-1.725338	-1.349520	-0.228378	0.569750	-0.675046	0.020191	-0.877715	-1.016357	0.268066	0.195068	0.103220	-0.003853	-0.017251	-0.372415	0.577371	0.469457	0.554581	139.855652	-81.916211	113.423230
33953		10.391876	-0.176806	-1.990515	-1.383706	-0.488991	0.667277	-0.669696	0.075705	-0.967426	-1.005127	0.263672	0.190674	0.103901	-0.002337	-0.019937	-0.367979	0.576137	0.470245	0.558147	136.440933	-81.578768	116.487122
33954		10.637839	-0.363120	-2.347319	-1.800949	-0.716516	0.913317	-0.694740	0.136516	-1.058433	-1.011230	0.248291	0.197754	0.106341	-0.004276	-0.023532	-0.363352	0.574536	0.471102	0.562091	132.872679	-81.202517	119.695844
33955		11.022010	-0.266802	-2.560463	-1.937726	-0.871988	1.304637	-0.682273	0.208618	-1.163665	-1.012939	0.232910	0.200439	0.110175	-0.003397	-0.025709	-0.358614	0.572444	0.472139	0.566382	129.166797	-80.778202	123.053374
33956		10.871265	-0.468101	-2.055031	-2.106603	-0.335279	1.053519	-0.723757	0.299578	-1.273299	-1.014893	0.219727	0.191895	0.108649	-0.005448	-0.020694	-0.353643	0.569879	0.473187	0.571199	125.294687	-80.301414	126.559801
33957		11.492845	-0.800464	-1.455797	-2.454924	0.428284	1.528958	-0.697053	0.411151	-1.394428	-1.010010	0.208740	0.187744	0.114838	-0.008857	-0.014764	-0.348645	0.566630	0.474428	0.576451	121.291188	-79.763357	130.220273
33958		12.007816	-1.087909	-1.358108	-2.937515	0.686881	1.939391	-0.661960	0.508183	-1.559840	-1.018311	0.186768	0.188232	0.119953	-0.011861	-0.013848	-0.343481	0.562600	0.476042	0.582139	117.214595	-79.126366	133.983452
33959		12.535739	-1.598793	-1.013418	-3.582815	1.248756	2.283898	-0.632926	0.573091	-1.734739	-1.022217	0.171143	0.179688	0.125183	-0.017107	-0.010440	-0.338008	0.557874	0.478075	0.588193	113.239694	-78.367786	137.667590
33960		13.080158	-1.795858	0.124620	-3.709316	2.460253	2.617648	-0.561349	0.655035	-1.965606	-1.032715	0.149170	0.171387	0.130620	-0.019240	0.000871	-0.332222	0.552172	0.480778	0.594633	109.382669	-77.455636	141.284967
33961		13.090904	-2.069731	0.068132	-4.255561	2.502092	2.486997	-0.464809	0.707274	-2.206330	-1.031738	0.124756	0.160889	0.130672	-0.022139	0.000269	-0.326065	0.545509	0.484280	0.601310	105.817901	-76.373978	144.672352
33962		13.407607	-1.521375	-0.123042	-4.182357	2.194509	2.827560	-0.352574	0.828978	-2.413335	-1.033203	0.098389	0.155029	0.133873	-0.016833	-0.001757	-0.319847	0.537705	0.488420	0.608290	102.475222	-75.150234	147.915190
33963		13.965366	-1.468191	-1.113592	-4.939214	1.319450	3.312767	-0.280619	0.935790	-2.609502	-1.028076	0.074219	0.151123	0.139392	-0.016518	-0.011766	-0.313420	0.528894	0.493040	0.615590	99.405662	-73.784990	150.935181
33964		15.806956	-1.686501	-2.249517	-6.378024	0.561592	4.909772	-0.254109	1.006185	-2.793924	-1.027100	0.049805	0.134033	0.157697	-0.019099	-0.023266	-0.306611	0.519256	0.498020	0.623169	96.660950	-72.281735	153.654523
33965		17.629622	-1.952909	-3.051395	-7.865130	0.126537	6.374496	-0.299382	1.050891	-2.985970	-1.030762	0.021240	0.128174	0.175815	-0.022203	-0.031407	-0.299117	0.508951	0.503168	0.631126	94.223437	-70.636934	156.045505
33966		17.754448	-2.574654	-2.709538	-8.863622	0.659130	6.003799	-0.434928	1.007516	-3.199877	-1.025146	-0.016113	0.120361	0.176962	-0.028641	-0.027928	-0.290425	0.498305	0.508366	0.639460	92.141347	-68.840124	158.001763
33967		18.158773	-2.945905	-1.198490	-9.355764	2.274659	5.907217	-0.591259	0.941930	-3.423963	-1.021729	-0.049316	0.103516	0.180989	-0.032598	-0.012745	-0.280361	0.487380	0.513559	0.648163	90.374319	-66.892151	159.544659
33968		20.807564	-5.438112	-1.479315	-13.180297	3.202741	6.940884	-0.610797	1.014638	-3.670404	-1.020752	-0.084473	0.091064	0.206952	-0.058233	-0.015671	-0.269551	0.475442	0.519011	0.657210	88.767120	-64.786944	160.924780
33969		22.898794	-7.135699	-3.247707	-16.742388	2.421925	7.495315	-0.558740	1.050817	-3.892116	-1.010498	-0.124023	0.083252	0.227366	-0.075885	-0.033467	-0.258114	0.462556	0.524906	0.666253	87.386025	-62.539594	162.109661
33970		22.838729	-7.630824	-4.925871	-18.394228	1.064278	6.451780	-0.572497	0.956397	-4.030445	-0.998047	-0.163574	0.071045	0.226548	-0.081029	-0.050118	-0.245847	0.449436	0.530979	0.675002	86.291661	-60.206192	162.986220
33971		21.733263	-6.466192	-4.395154	-17.398479	1.131546	5.333137	-0.648336	0.858671	-4.111636	-0.988037	-0.201172	0.058594	0.215750	-0.069252	-0.044661	-0.232747	0.436331	0.536858	0.683540	85.390514	-57.822667	163.605250
33972		22.130457	-4.385309	-2.934887	-16.114934	2.000222	6.119359	-0.863578	1.028266	-4.110124	-0.978027	-0.231934	0.046143	0.220185	-0.048515	-0.030280	-0.219565	0.422687	0.541564	0.692702	84.327437	-55.427482	164.291008
33973		21.371480	-3.401233	-4.316502	-16.097942	0.332878	5.274039	-1.119463	1.360734	-4.012883	-0.965820	-0.264893	0.031738	0.212673	-0.038533	-0.044407	-0.206942	0.408250	0.544547	0.702834	82.965762	-53.057879	165.179735
33974		18.823566	-2.558204	-4.515518	-14.673481	-0.514100	3.056873	-0.779443	1.484817	-4.011062	-0.946777	-0.302246	0.010498	0.187328	-0.029525	-0.046438	-0.195341	0.392788	0.548362	0.711940	81.833010	-50.670917	166.063857
33975		18.019322	-0.738500	-3.926828	-13.237105	-0.685890	3.029382	-0.436653	1.415906	-3.995455	-0.932617	-0.333008	0.000244	0.179713	-0.011066	-0.040520	-0.184108	0.377146	0.553151	0.719645	81.045159	-48.288250	166.772505
33976		16.310446	-3.017202	-6.097869	-14.872406	-2.256104	-0.539014	-0.179654	1.137604	-3.800468	-0.913818	-0.363770	-0.012207	0.162141	-0.033315	-0.061874	-0.173375	0.362543	0.558572	0.725604	80.621416	-46.038765	167.232432
33977		12.678501	-6.420613	-6.899101	-15.153034	-2.493571	-6.109627	0.192747	0.761665	-3.367174	-0.895020	-0.394531	-0.015625	0.125417	-0.066259	-0.069534	-0.163618	0.350169	0.564635	0.729245	80.617667	-44.066053	167.395434
33978		9.387916	-6.152861	-5.582842	-12.320944	-1.874839	-8.460153	0.127418	0.546541	-2.732694	-0.887695	-0.412109	-0.012939	0.092874	-0.062766	-0.056123	-0.155566	0.340242	0.569432	0.731971	80.639379	-42.474563	167.491354
33979		7.352089	-1.066619	-3.836346	-7.220571	-2.100498	-6.157913	0.173216	0.405384	-2.250760	-0.878174	-0.427490	-0.019287	0.073317	-0.011459	-0.038522	-0.148775	0.332208	0.573547	0.733858	80.722443	-41.166250	167.517406
33980		8.529794	2.800353	-2.137305	-5.346454	-1.441249	-2.430104	-0.699482	0.136033	-1.980016	-0.860107	-0.436035	-0.019043	0.085554	0.027082	-0.021527	-0.140865	0.326474	0.574175	0.737493	80.415423	-40.038785	167.390760
33981		8.910361	1.228081	-1.918573	-6.612725	-0.672834	-3.456546	-1.248533	0.228338	-1.530930	-0.855225	-0.449219	-0.031982	0.089171	0.011478	-0.019361	-0.133838	0.322115	0.571885	0.742480	79.720567	-39.154091	167.360438
33982		5.764736	-7.137297	-2.629947	-9.253958	0.749786	-12.024271	-0.732332	0.275089	-0.788932	-0.848633	-0.451416	-0.029541	0.057329	-0.071695	-0.026116	-0.130663	0.319257	0.570286	0.745504	79.242591	-38.685464	167.472483
33983		3.344011	-11.516365	-3.704141	-10.190832	0.740348	-17.101620	-0.042056	0.073005	-0.134614	-0.846436	-0.449219	-0.029785	0.033349	-0.115194	-0.037029	-0.130310	0.318643	0.570301	0.745817	79.199091	-38.603766	167.505456
33984		2.412517	-11.044826	-3.522657	-9.175658	0.577424	-17.275317	0.511988	-0.149168	0.485570	-0.846680	-0.440430	-0.018799	0.024419	-0.110299	-0.035491	-0.132626	0.320208	0.571561	0.743771	79.519416	-38.897667	167.477239
33985		2.126578	-8.071928	-2.543508	-7.019723	0.468205	-14.975148	0.798296	-0.302865	0.996279	-0.857910	-0.436035	-0.012451	0.021706	-0.080510	-0.025724	-0.136749	0.323661	0.573128	0.740316	80.035404	-39.492109	167.386402
33986		2.303733	-5.579474	-1.699959	-5.508870	0.479374	-12.770576	0.965503	-0.446623	1.457234	-0.863037	-0.418213	0.004883	0.023481	-0.055542	-0.017216	-0.142489	0.328813	0.574641	0.735776	80.684555	-40.362818	167.245569
33987		2.649192	-3.599953	-1.584891	-4.603804	0.019531	-10.949983	1.054087	-0.606680	1.904965	-0.865723	-0.405029	0.011230	0.026881	-0.035661	-0.015956	-0.149485	0.335761	0.575787	0.730334	81.441287	-41.496889	167.014212
33988		2.848845	-2.801865	-2.003127	-4.415503	-0.597709	-10.164491	1.051340	-0.713493	2.359918	-0.884277	-0.385010	0.028320	0.028887	-0.027574	-0.020074	-0.157814	0.344385	0.576143	0.724261	82.239682	-42.897969	166.723652
33989		3.205248	-3.163859	-2.535596	-5.070556	-0.958682	-10.097320	1.094914	-0.794903	2.873635	-0.895996	-0.360840	0.038818	0.032602	-0.031034	-0.025398	-0.167803	0.354648	0.575718	0.717367	83.100552	-44.590924	166.387731
33990		3.912706	-3.410345	-2.519145	-5.711602	-0.780102	-9.586666	1.128076	-0.855608	3.412365	-0.912842	-0.325684	0.057617	0.039807	-0.033286	-0.025211	-0.179531	0.366598	0.574315	0.709603	84.024662	-46.593232	165.995528
33991		4.760732	-3.180275	-2.306400	-6.022029	-0.527693	-8.567922	1.101040	-0.902460	3.898655	-0.918213	-0.294922	0.070068	0.048317	-0.030739	-0.023018	-0.192759	0.379941	0.571766	0.701122	84.989020	-48.868039	165.546643
33992		5.783969	-2.397108	-1.993900	-5.933422	-0.300719	-7.006849	1.090644	-0.954113	4.296388	-0.935303	-0.252930	0.088867	0.058430	-0.022612	-0.019787	-0.207047	0.394523	0.568159	0.691866	86.041865	-51.369284	164.978569
33993		6.601983	-1.585104	-1.808227	-5.604934	-0.235366	-5.583275	1.094766	-1.023685	4.648613	-0.943359	-0.211182	0.096680	0.066455	-0.014212	-0.017824	-0.222325	0.410031	0.563670	0.681705	87.236010	-54.064340	164.267926
33994		7.549137	-0.634386	-1.800883	-5.155023	-0.352729	-3.988357	0.990428	-1.083835	4.976899	-0.958008	-0.167236	0.117676	0.075713	-0.004374	-0.017624	-0.238086	0.426645	0.557793	0.670937	88.562773	-56.940983	163.330486
33995		8.456899	-0.100563	-1.786392	-4.853747	-0.364492	-2.670545	0.763961	-1.120942	5.297837	-0.970459	-0.123291	0.132080	0.084653	0.001303	-0.017388	-0.254279	0.444123	0.550184	0.659844	89.987967	-59.986137	162.173833
33996		8.991511	0.108261	-2.032739	-4.589503	-0.601990	-1.841346	0.600111	-1.137733	5.565367	-0.974365	-0.072510	0.146240	0.089951	0.003646	-0.019807	-0.270580	0.462418	0.540923	0.648351	91.632212	-63.169223	160.669863
33997		9.547828	0.298739	-2.091031	-4.195810	-0.665041	-1.006552	0.540799	-1.172016	5.784318	-0.982910	-0.015381	0.164551	0.095458	0.005804	-0.020338	-0.287299	0.480936	0.530655	0.636055	93.700682	-66.450632	158.728671
33998		10.505349	0.292941	-1.965271	-3.957362	-0.448869	0.107646	0.386370	-1.212023	5.996796	-0.989258	0.041992	0.180908	0.105018	0.006116	-0.019006	-0.303744	0.500130	0.518810	0.623254	96.420924	-69.815617	156.003051
33999		11.630201	0.583221	-1.888806	-3.372919	-0.356737	1.484213	0.202464	-1.261171	6.192172	-0.988770	0.094971	0.201660	0.116163	0.009449	-0.018147	-0.320129	0.519573	0.505617	0.609846	100.220077	-73.224937	152.122816
34000		12.381821	0.398118	-1.742086	-2.945918	-0.127891	2.342735	-0.019563	-1.312445	6.356646	-0.986084	0.156738	0.226563	0.123719	0.007913	-0.016609	-0.335706	0.539658	0.490670	0.596082	106.032913	-76.606585	146.047097
34001		13.418857	0.507507	-1.793809	-2.233332	-0.154337	3.546333	-0.220892	-1.383209	6.519152	-0.983398	0.211670	0.242920	0.134048	0.009427	-0.017019	-0.350966	0.559851	0.474475	0.581604	115.883772	-79.824853	135.861140
34002		14.603954	0.512126	-1.512020	-1.359711	0.168136	4.811433	-0.525890	-1.489588	6.684273	-0.974121	0.271240	0.265869	0.145868	0.009961	-0.014055	-0.364827	0.580953	0.456262	0.566763	134.401588	-82.497042	116.759153
34003		16.316866	0.727115	-1.166609	-0.085042	0.518953	6.550218	-0.702959	-1.671012	6.849038	-0.960938	0.342041	0.295166	0.162883	0.012815	-0.010343	-0.378159	0.602235	0.437142	0.550650	166.438994	-83.647480	84.095655
34004		17.988958	0.777837	-0.443679	1.440782	1.248133	8.093420	-0.853842	-1.904248	7.031890	-0.936523	0.415039	0.319824	0.179500	0.014081	-0.002777	-0.390552	0.624075	0.416919	0.533084	-161.252765	-82.318060	51.067799
34005		19.697171	0.183962	-0.168942	2.496646	1.776357	9.641696	-0.985167	-2.166516	7.134859	-0.907471	0.483643	0.351318	0.196742	0.008861	0.000411	-0.401710	0.646208	0.395971	0.514055	-143.004909	-79.266065	32.021949
34006		21.912467	0.742975	-0.490656	4.786190	1.397921	11.538186	-0.828277	-2.480071	7.144870	-0.860596	0.552490	0.389648	0.218712	0.015236	-0.002245	-0.412216	0.667939	0.375445	0.492926	-133.977179	-75.470457	22.291904
34007		24.733202	2.200721	0.164632	8.680215	1.639634	13.388031	-0.521427	-2.755060	7.058272	-0.816162	0.623291	0.416748	0.246297	0.030723	0.004972	-0.422409	0.688574	0.355999	0.469789	-129.214256	-71.391855	17.015680
34008		26.986448	8.977328	1.356064	17.493628	0.140079	12.643738	-0.399238	-2.369846	6.960968	-0.749023	0.685303	0.433105	0.266338	0.099116	0.016539	-0.432898	0.706920	0.335852	0.447288	-125.839823	-67.394463	13.170349
34009		26.697359	6.178056	5.152122	17.823121	4.421813	11.162024	0.218163	-1.835198	6.714987	-0.686279	0.742920	0.440674	0.264213	0.070626	0.054028	-0.445350	0.721402	0.316376	0.425616	-122.853119	-63.621205	10.028878
34010		26.864449	6.368550	1.345181	18.167003	0.640230	11.004981	1.235651	-1.605187	5.921608	-0.623047	0.789551	0.437744	0.266483	0.071504	0.016022	-0.459667	0.731092	0.301056	0.404445	-120.280860	-60.243721	7.919024
34011		22.714309	13.021681	0.202675	22.177057	-3.362152	3.687555	2.024171	-1.615788	4.768152	-0.568115	0.818359	0.430420	0.223920	0.135539	0.005199	-0.474116	0.736618	0.291322	0.384368	-118.247486	-57.405743	6.899955
34012		21.255592	22.618402	1.304093	29.865771	-5.836214	-3.573771	1.918090	-1.563746	3.432633	-0.524170	0.840332	0.418945	0.208512	0.229636	0.016873	-0.485409	0.739921	0.285996	0.367561	-116.970599	-55.243550	6.688076
34013		16.418448	29.629210	3.916291	33.441224	-5.953087	-12.808250	1.033052	-1.007769	2.149457	-0.497559	0.846924	0.405518	0.160784	0.297822	0.041515	-0.491709	0.742281	0.282363	0.357090	-116.326981	-53.881782	6.626089
34014		14.776010	28.271795	5.922249	31.922456	-3.351437	-14.544853	1.505628	-0.696001	0.792888	-0.482178	0.855713	0.387695	0.146427	0.282841	0.061863	-0.497628	0.740989	0.283655	0.350487	-115.684618	-53.295043	6.875100
34015		15.839353	29.201414	5.083648	33.106596	-3.788742	-14.172346	2.124220	-0.484918	-0.360718	-0.475586	0.853271	0.374512	0.158790	0.291163	0.054317	-0.504157	0.736000	0.289902	0.346536	-114.922845	-53.361075	7.444259
34016		18.469699	28.944060	2.969775	34.095202	-4.829439	-11.172930	1.633311	-0.147707	-1.695140	-0.479736	0.846680	0.361572	0.187117	0.287605	0.032189	-0.506953	0.729666	0.299260	0.347892	-114.649606	-54.204710	8.256213
34017		17.455613	19.782320	-5.401309	24.636317	-9.484487	-4.497830	1.336210	-0.164589	-3.207073	-0.499268	0.828613	0.346436	0.177746	0.195344	-0.052557	-0.505936	0.721660	0.313655	0.353350	-115.110532	-55.830067	9.754546
34018		12.053516	3.523376	-11.511329	7.246109	-10.755436	1.233498	1.380663	-0.231586	-3.547471	-0.520996	0.815430	0.340088	0.121277	0.033880	-0.114736	-0.504161	0.712922	0.329363	0.359283	-115.836358	-57.606121	11.558785
34019		11.066972	-27.571653	-6.377967	-18.524621	2.646413	14.127967	-0.108915	0.655796	-1.952201	-0.524902	0.800049	0.340332	0.107762	-0.276813	-0.063986	-0.501328	0.708769	0.334454	0.366683	-116.143929	-58.774127	11.848663
34020		10.393244	-12.133542	12.123567	-2.735010	16.017829	1.941961	-1.104425	1.317180	-1.709001	-0.535400	0.780029	0.336426	0.103693	-0.121553	0.121223	-0.496454	0.706217	0.335163	0.377434	-116.365336	-59.984133	11.372137
34021		25.796284	9.199265	18.309812	23.907974	17.362390	4.754564	-0.507875	1.283717	-3.081196	-0.561523	0.760010	0.327881	0.260511	0.088454	0.181204	-0.490936	0.699795	0.341849	0.390394	-116.896667	-61.889863	11.648386
34022		20.088856	-7.037102	3.431146	3.564401	7.150936	10.211501	0.650064	1.021852	-3.265941	-0.578857	0.739990	0.317383	0.199874	-0.073749	0.033052	-0.488516	0.690520	0.351985	0.400800	-117.165316	-63.821162	12.370021
34023		15.706031	-2.708255	0.554368	4.252323	2.789683	5.301322	0.311871	0.428688	-3.291548	-0.604736	0.715576	0.315674	0.156598	-0.029671	0.005163	-0.483693	0.683015	0.362877	0.409697	-118.386518	-65.602316	13.919407
34024		20.845644	9.656841	-2.810912	16.078066	-3.146554	6.534312	-0.351588	0.411530	-3.858305	-0.626221	0.691162	0.305176	0.210208	0.092474	-0.028705	-0.475252	0.675896	0.374268	0.420979	-120.631821	-67.641159	16.146737
34025		14.486346	2.774158	-9.570914	5.549759	-8.308449	4.654531	0.503773	0.160351	-3.824998	-0.645752	0.669189	0.296875	0.145285	0.025207	-0.095760	-0.469124	0.667084	0.387803	0.429570	-123.095341	-69.549480	19.103603
34026		9.249489	3.061106	-6.687088	4.393891	-6.066636	-0.673592	1.604332	-0.447497	-3.733804	-0.667236	0.644775	0.292969	0.093200	0.029409	-0.066424	-0.465497	0.656906	0.404673	0.433622	-126.174440	-71.163663	23.349549
34027		11.467072	4.616091	3.134470	8.154164	3.485517	-0.649140	0.933955	-0.461566	-3.402425	-0.677734	0.624756	0.288818	0.115359	0.044054	0.031819	-0.460189	0.648751	0.418882	0.438048	-129.940188	-72.534551	27.876386
34028		8.355578	4.230221	-1.458577	5.869423	-1.092529	-2.451545	1.522844	-0.679668	-3.141633	-0.697266	0.609375	0.282715	0.084256	0.041090	-0.013984	-0.456756	0.640056	0.433909	0.439801	-133.975343	-73.612515	33.006899
34029		9.929486	6.324009	-5.945356	7.362399	-5.410189	-0.302099	1.414984	-0.727854	-2.674138	-0.701172	0.591553	0.278564	0.100347	0.062320	-0.058647	-0.453778	0.632553	0.447188	0.440437	-138.015719	-74.375613	38.054576
34030		14.409367	9.126200	-0.933127	11.569767	-0.273577	2.750677	-1.090098	0.643723	-2.242089	-0.716064	0.571777	0.276855	0.145072	0.089585	-0.010289	-0.446799	0.628546	0.450386	0.449948	-141.393982	-75.486798	40.907155
34031		10.920037	4.084670	-2.157857	5.524708	-1.146757	0.615193	-2.238964	0.860274	-2.146422	-0.733398	0.554199	0.283936	0.109533	0.039424	-0.022496	-0.436821	0.626705	0.450114	0.462412	-145.467642	-76.613691	43.783781
34032		8.578962	0.554607	-1.458596	1.596194	-0.170082	-1.242207	-2.283981	0.859160	-1.878880	-0.732666	0.532227	0.288818	0.085772	0.004570	-0.015010	-0.427206	0.625406	0.448797	0.474282	-149.590481	-77.606116	46.671569
34033		8.956553	-0.506380	-0.521836	0.640281	1.007431	-0.906424	-1.412752	0.651586	-1.617215	-0.747803	0.514648	0.291504	0.089503	-0.005826	-0.005471	-0.420397	0.623218	0.449085	0.482896	-153.384694	-78.374834	49.724218
34034		10.248491	-2.677141	0.035042	-1.317415	2.262688	0.450970	-0.238400	0.308753	-1.402481	-0.749756	0.505859	0.289551	0.102294	-0.027489	0.000225	-0.416953	0.619810	0.452224	0.487318	-156.772553	-78.872967	53.041569
34035		10.665880	-0.015165	-0.914471	0.947969	0.788244	0.821029	0.029760	0.024944	-1.301760	-0.760498	0.494873	0.289795	0.106654	-0.000844	-0.009158	-0.413930	0.616739	0.456270	0.490014	-160.298289	-79.157553	56.651632
34036		10.937490	3.887693	-1.381259	4.516820	-0.535730	0.955801	-0.443915	0.116166	-1.165193	-0.762451	0.483887	0.290039	0.109591	0.038208	-0.013962	-0.409966	0.614705	0.458531	0.493776	-163.801508	-79.425647	59.959010
34037		10.127128	1.082349	-0.743713	1.758611	0.636013	0.226499	-0.566428	0.148468	-0.899800	-0.769043	0.477051	0.285645	0.101313	0.010346	-0.007542	-0.406347	0.613436	0.459588	0.497351	-166.699053	-79.637582	62.576752
34038		9.613923	-0.811634	-1.178510	-0.308823	0.620860	-0.117652	-0.265940	-0.012249	-0.838508	-0.770996	0.474854	0.283447	0.096105	-0.008535	-0.011768	-0.403417	0.612077	0.461524	0.499613	-169.439841	-79.729027	65.208635
34039		9.935553	0.225465	-2.078059	0.426811	-0.418149	0.322737	-0.128129	-0.088152	-0.769595	-0.772949	0.464111	0.292725	0.099372	0.001859	-0.020738	-0.400904	0.610783	0.463734	0.501170	-171.953027	-79.748968	67.689255
34040		9.980057	1.307499	-2.012911	1.424547	-0.595933	0.335124	-0.204640	0.005216	-0.611651	-0.775146	0.459717	0.294922	0.099839	0.012749	-0.020145	-0.398760	0.609761	0.465081	0.502873	-173.993221	-79.793798	69.644193
34041		9.888397	0.747898	-1.733189	0.884348	-0.194692	0.213449	-0.360894	0.074966	-0.523189	-0.777100	0.452881	0.286377	0.098897	0.007189	-0.017382	-0.396525	0.609081	0.465618	0.504964	-175.832982	-79.861773	71.304455
34042		10.057881	0.424669	-1.703903	0.532009	-0.051913	0.383323	-0.474920	0.074700	-0.455740	-0.783691	0.446289	0.288574	0.100582	0.003977	-0.017086	-0.394102	0.608772	0.465661	0.507188	-177.550240	-79.918580	72.773347
34043		10.071208	0.604321	-1.809874	0.627950	-0.193756	0.416585	-0.608705	0.089515	-0.372099	-0.781250	0.442139	0.295410	0.100715	0.005801	-0.018162	-0.391521	0.608883	0.465071	0.509590	-179.082058	-79.974815	73.976053
34044		9.841133	0.163883	-1.949522	0.108454	-0.250040	0.217315	-0.670436	0.115074	-0.308230	-0.779053	0.439941	0.297607	0.098402	0.001422	-0.019557	-0.388962	0.609184	0.464078	0.512089	179.536419	-80.040484	74.989763
34045		9.950089	-0.051943	-1.919902	-0.130549	-0.147881	0.319140	-0.661476	0.146120	-0.279373	-0.783447	0.437744	0.300049	0.099486	-0.000722	-0.019270	-0.386577	0.609452	0.462948	0.514592	178.244007	-80.119873	75.918243
